Timestamp,IMU_Raw_x,IMU_Raw_y,IMU_Raw_z,IMU_Linear_Acc_X,IMU_Linear_Acc_Y,IMU_Linear_Acc_Z
1706235639070319972,0.09489750862121582,9.75922966003418,-1.0907639265060427,1.9157805581926368e-05,1.5918949429760687e-06,-2.6596377210807987e-05
1706235639080060806,0.10668003559112549,9.752490043640138,-1.0805885791778564,0.0001980266533792019,-2.0782732462976128e-05,-0.00014691297837998718
1706235639090565843,0.10292981564998627,9.760934829711914,-1.086273193359375,0.0009017540724016726,-0.00015724831609986722,-0.0003611063293647021
1706235639100328824,0.10971876233816148,9.759573936462404,-1.077911138534546,0.0025536217726767063,-0.0004594727070070803,-0.0004994853516109288
1706235639110146250,0.10750105232000352,9.746758460998537,-1.0866771936416628,0.005282668862491846,-0.0008558232802897692,-0.0003293562331236899
1706235639120705268,0.10266399383544922,9.763964653015138,-1.0764226913452148,0.008750314824283123,-0.0013086112448945642,0.0002523660659790039
1706235639130760991,0.10427106171846391,9.7572021484375,-1.0837581157684326,0.012225400656461716,-0.0018145913491025567,0.0011739744804799557
1706235639141014213,0.10078693926334381,9.756175041198732,-1.077005982398987,0.014868419617414474,-0.002218431094661355,0.002276024781167507
1706235639150813009,0.10131005942821503,9.760250091552734,-1.081928372383118,0.016113385558128357,-0.002333474811166525,0.0033862139098346233
1706235639160831620,0.09126053005456926,9.757208824157717,-1.0852744579315186,0.015831155702471733,-0.0021336437202990055,0.004321908112615347
1706235639170742046,0.09546550363302232,9.771036148071289,-1.0829931497573855,0.014199931174516678,-0.0016515065217390656,0.004858547355979681
1706235639181660324,0.08571872860193254,9.77340316772461,-1.0777434110641482,0.011542091146111488,-0.0007532433373853564,0.004839392378926277
1706235639191012731,0.09831738471984863,9.760917663574219,-1.0808993577957156,0.008291002362966537,0.0008385146502405405,0.004394841846078634
1706235639205350009,0.09670425206422807,9.757560729980469,-1.0862607955932617,0.0050560771487653255,0.0030662270728498697,0.003869515610858798
1706235639210757120,0.10819364339113237,9.758581161499023,-1.0777196884155273,0.002637566300109029,0.005209657363593578,0.003491380251944065
1706235639221003065,0.104468010365963,9.765988349914553,-1.0778716802597048,0.001814813818782568,0.006372836884111166,0.0033190385438501835
1706235639231077805,0.11834117770195007,9.76060676574707,-1.0863502025604248,0.0030163784977048635,0.006241861265152693,0.003399638459086418
1706235639241046324,0.1075049489736557,9.762250900268555,-1.0722932815551758,0.006144308485090733,0.005205090157687664,0.0037278051022440195
1706235639252580472,0.11243545264005662,9.765974044799805,-1.0712181329727175,0.010560806840658188,0.003918429370969534,0.004277285188436508
1706235639260665083,0.11239204555749895,9.760586738586428,-1.0878331661224365,0.015240190550684929,0.0029379872139543295,0.005120348185300827
1706235639270485102,0.10703630745410919,9.756519317626953,-1.0650955438613894,0.01915595680475235,0.002513182582333684,0.006228057201951742
1706235639281333750,0.10326657444238664,9.762594223022461,-1.0715205669403076,0.021598270162940025,0.0024872608482837677,0.007435378152877092
1706235639291029768,0.10097451508045197,9.75449848175049,-1.0731950998306277,0.022216062992811203,0.0024903262965381145,0.008729764260351658
1706235639300171009,0.09032905846834184,9.75686264038086,-1.0849947929382324,0.02097318321466446,0.0022198029328137636,0.010096793062984943
1706235639310333768,0.0799122303724289,9.762608528137209,-1.085820555686951,0.01802007295191288,0.0015605712542310357,0.011112097650766373
1706235639320864954,0.08518637716770172,9.758541107177734,-1.0843963623046875,0.013546439819037914,0.0006653634482063353,0.011079574935138226
1706235639330747694,0.08232473582029344,9.760912895202638,-1.0822515487670898,0.007922944612801075,-0.00011043691483791918,0.009630471467971802
1706235639340388361,0.07910073548555376,9.759220123291016,-1.0797626972198486,0.0018977988511323929,-0.00047963057295419276,0.007108472287654877
1706235639350609379,0.0811150297522545,9.757524490356445,-1.0782440900802615,-0.0036148028448224068,-0.00040282783447764814,0.004402162507176399
1706235639360861287,0.08620280772447587,9.763617515563967,-1.0849233865737917,-0.007887189276516438,-4.317799903219566e-05,0.002420560922473669
1706235639370552009,0.08783916383981706,9.758580207824709,-1.090532183647156,-0.010466990992426872,0.00041026173857972026,0.0015455492539331317
1706235639380351194,0.08054590970277788,9.759895324707031,-1.0696101188659668,-0.011211595498025417,0.000847267045173794,0.0015165931545197964
1706235639391013231,0.09271422773599626,9.757552146911623,-1.0897126197814941,-0.010406075045466423,0.001176084391772747,0.0019127688137814403
1706235639400773213,0.08962942659854889,9.751115798950195,-1.0789529085159304,-0.008629701100289822,0.0012488195206969976,0.00249611958861351
1706235639410487176,0.09097308665513994,9.747765541076662,-1.0831464529037478,-0.006420099642127752,0.0008290993282571435,0.0030772481113672256
1706235639421099676,0.08240455389022827,9.743693351745607,-1.0761566162109375,-0.004210921470075846,-0.0003783112915698439,0.0035048890858888626
1706235639430943416,0.08405075222253801,9.747421264648438,-1.0746506452560427,-0.002486033132299781,-0.0025460447650402784,0.0038458872586488724
1706235639440669509,0.0738089755177498,9.755520820617678,-1.0803265571594238,-0.0017679877346381545,-0.0054474384523928165,0.004342909902334213
1706235639451034490,0.07615926116704942,9.754179000854492,-1.077562212944031,-0.0024395491927862167,-0.008337996900081635,0.005135724321007729
1706235639460068713,0.07155278325080872,9.756871223449709,-1.0795890092849734,-0.004570044577121735,-0.010259571485221386,0.006085765548050404
1706235639470905083,0.07456242293119432,9.755865097045898,-1.0748382806777956,-0.00782624538987875,-0.01059531606733799,0.006924193352460861
1706235639480712490,0.07682120054960252,9.75790309906006,-1.0726579427719118,-0.011523154564201832,-0.009367750957608223,0.007524986285716295
1706235639630992639,0.10130514949560167,9.762230873107912,-1.064974665641785,-0.01678352616727352,-0.004589182790368795,0.008888502605259418
1706235639730208213,0.09201335906982422,9.7531213760376,-1.0645136833190918,0.010829495266079903,0.004279426299035549,0.02096215821802616
1706235639740982472,0.1080680787563324,9.762224197387695,-1.0647213459014893,0.009270663373172283,0.0006279176450334489,0.019550101831555367
1706235639751083601,0.1076614260673523,9.750419616699219,-1.0721898078918457,0.008357631042599678,-0.0025042982306331396,0.01862518861889839
1706235639760126638,0.10496778786182404,9.759197235107422,-1.0673551559448242,0.008342403918504715,-0.004463165067136288,0.018179383128881454
1706235639770905083,0.0926140695810318,9.762570381164553,-1.070951223373413,0.009275741875171661,-0.005105980206280947,0.01795736327767372
1706235639780652250,0.09329464286565782,9.75916385650635,-1.0576388835906982,0.010608210228383541,-0.004596712999045849,0.01774163544178009
1706235639790054638,0.09789124876260759,9.762243270874023,-1.0733420848846436,0.011384575627744198,-0.0032223721500486135,0.01758166216313839
1706235639800954879,0.1014622151851654,9.769000053405763,-1.084221959114075,0.011002321727573872,-0.0013543403474614024,0.017534924671053886
1706235639810732879,0.10230893641710283,9.761201858520508,-1.0702390670776367,0.00969006773084402,0.000681773410178721,0.017250940203666687
1706235639820556787,0.09692526608705522,9.768338203430178,-1.0861428976058962,0.00822004396468401,0.0026603271253407,0.016197258606553078
1706235639830851453,0.10328060388565063,9.761926651000977,-1.0725059509277344,0.007267082575708628,0.004375915974378586,0.014216297306120396
1706235639840551064,0.08409408479928972,9.75479507446289,-1.0679280757904053,0.007006094325333834,0.005590613931417465,0.011712069623172283
1706235639851020324,0.0835309773683548,9.7548303604126,-1.0826715230941775,0.006999516859650612,0.005981241352856159,0.00947663001716137
1706235639860127768,0.08572256565093994,9.758191108703615,-1.0790327787399294,0.006399253848940134,0.005255838856101036,0.008134654723107815
1706235639870130009,0.08644893765449524,9.756830215454102,-1.0791264772415163,0.004585359711199999,0.0034834719263017178,0.007654810324311256
1706235639881941305,0.09068965166807176,9.754139900207521,-1.0815010070800781,0.0017127678729593754,0.001171085168607533,0.0075643653981387615
1706235639890808416,0.10257332772016527,9.757180213928224,-1.0836117267608643,-0.0013286240864545107,-0.0010567780118435621,0.007404324598610401
1706235639900558787,0.08568833023309709,9.754467964172365,-1.0801565647125244,-0.003393464954569936,-0.002760558156296611,0.006902728695422411
1706235639913301046,0.09212495386600494,9.76191806793213,-1.08475923538208,-0.0038035826291888952,-0.0037360009737312794,0.006016145460307598
1706235639926599583,0.08938498049974443,9.768682479858398,-1.0808286666870117,-0.0027947102207690477,-0.0038775706198066473,0.004902190528810024
1706235639930417249,0.09508578479290009,9.751091003417969,-1.0826410055160525,-0.0011705500073730946,-0.003111673053354025,0.00380554492585361
1706235639940794398,0.08661431819200517,9.757843971252443,-1.0791600942611697,0.00033035222440958023,-0.0016591958701610565,0.0029670915100723505
1706235639950262268,0.09033441543579102,9.757189750671388,-1.0881993770599365,0.001267006155103445,-0.0001719088468234986,0.002534017199650407
1706235639962032527,0.09931696951389313,9.76494884490967,-1.0804522037506104,0.0015039524296298623,0.0007389583624899387,0.0024478393606841564
1706235639970838786,0.0986158698797226,9.769337654113771,-1.0797219276428223,0.0013182739494368434,0.0010414825519546866,0.0025167709682136774
1706235639980528861,0.08416656404733659,9.756502151489258,-1.0763297080993652,0.0012443240266293287,0.0012143260100856423,0.002676946809515357
1706235639991025305,0.0869983434677124,9.748387336730959,-1.0733939409255984,0.0014789665583521128,0.001592588727362454,0.0030938927084207535
1706235640000762435,0.08926188200712205,9.745348930358888,-1.071732997894287,0.0016429678071290255,0.0018166484078392386,0.004014379344880581
1706235640010507916,0.099271759390831,9.756860733032227,-1.0837948322296143,0.0013371348613873124,0.0011333635775372386,0.0055145155638456345
1706235640022235898,0.10042204707860948,9.75923824310303,-1.0846421718597412,0.0007434608414769173,-0.0007104566902853549,0.007233083713799715
1706235640030954083,0.1008320152759552,9.758204460144045,-1.0804190635681152,0.0005446990253403783,-0.003056538524106145,0.008427727967500687
1706235640040754435,0.09075294435024261,9.753488540649414,-1.0792387723922732,0.0012908705975860357,-0.004878044128417969,0.008529281243681908
1706235640050972175,0.10272310674190521,9.763944625854492,-1.0657478570938113,0.002895649755373597,-0.005550967529416084,0.007672501727938652
1706235640060110935,0.09246723353862762,9.756168365478516,-1.0735867023468018,0.004776403773576021,-0.005040089599788189,0.006679377052932978
1706235640070044898,0.09568631649017334,9.750776290893555,-1.0807318687438965,0.00631522573530674,-0.0037232961039990187,0.006439905613660812
1706235640082480916,0.10190375894308092,9.761573791503906,-1.0784598588943484,0.0071397447027266026,-0.002251729601994157,0.007160116918385029
1706235640090710749,0.09971126168966295,9.76527500152588,-1.0676141977310183,0.007277919445186853,-0.001176458434201777,0.00833708792924881
1706235640100648898,0.09485109150409698,9.75752925872803,-1.0773136615753174,0.007094783242791891,-0.0005356965702958405,0.00944546889513731
1706235640110328860,0.09509623050689697,9.758548736572266,-1.0724763870239258,0.006901792250573635,-5.5366217566188425e-05,0.010312224738299847
1706235640121709842,0.09957334399223328,9.757533073425295,-1.0749053955078125,0.006732835900038481,0.0003724561247508973,0.01092870905995369
1706235640130586360,0.09638416767120361,9.770703315734865,-1.083390235900879,0.006533772684633732,0.000690844957716763,0.011249610222876072
1706235640140283286,0.10122497379779816,9.753819465637209,-1.084540605545044,0.006356516852974892,0.000967420928645879,0.011096855625510216
1706235640150473064,0.09436552226543427,9.747411727905273,-1.0772718191146853,0.006310694385319948,0.0012570468243211508,0.010223844088613987
1706235640160363935,0.08612656593322754,9.754492759704592,-1.0888272523880007,0.006362061947584152,0.0012299930676817894,0.008607398718595505
1706235640170156249,0.09067286550998688,9.758907318115234,-1.0869078636169434,0.00618258211761713,0.00043792129145003855,0.00650965329259634
1706235640182387231,0.09160382300615312,9.74672603607178,-1.084099292755127,0.005368047393858433,-0.0010963826207444072,0.004238166380673647
1706235640190323601,0.09820783883333208,9.750452995300295,-1.0840482711791992,0.0039054129738360643,-0.0029654637910425663,0.002090862486511469
1706235640200206509,0.09183310717344285,9.758562088012695,-1.0901249647140505,0.0022972070146352053,-0.004796423949301243,0.0003837190743070096
1706235640210436360,0.08987949788570404,9.75990104675293,-1.0877500772476199,0.0011442480608820915,-0.006222579162567854,-0.0007359995506703854
1706235640220091249,0.08944383263587952,9.753491401672365,-1.0784820318222048,0.0006513106054626405,-0.006806014105677605,-0.0013487553223967552
1706235640230194601,0.07480873167514801,9.75417232513428,-1.0820561647415163,0.0005024545243941247,-0.00637636985629797,-0.0014944447902962565
1706235640247534027,0.0919267162680626,9.754189491271974,-1.091282606124878,9.484822658123448e-05,-0.0052766441367566586,-0.0011114896042272449
1706235640250434620,0.09759339690208435,9.760261535644531,-1.0839072465896609,-0.0009141626069322228,-0.004081012215465307,-0.00035900415969081223
1706235640261324231,0.09644655883312225,9.754837036132812,-1.0752063989639284,-0.0021116610150784254,-0.0031565260142087936,0.0003920029557775706
1706235640271831675,0.09972151368856431,9.763946533203125,-1.0735599994659424,-0.002598881023004651,-0.0025346390902996063,0.0010555152548477054
1706235640280907064,0.11461793631315233,9.748080253601076,-1.0716871023178103,-0.0016763476887717843,-0.002085910178720951,0.0020022322423756123
1706235640293252083,0.09473706036806108,9.756214141845703,-1.0916104316711426,0.0008546900353394449,-0.001789331785403192,0.00355235836468637
1706235640301115064,0.10494141280651093,9.754160881042482,-1.070871710777283,0.004582257010042667,-0.001804875093512237,0.005437313113361597
1706235640310300879,0.10528945922851562,9.75653076171875,-1.0848246812820437,0.00854862667620182,-0.002226229989901185,0.00699117686599493
1706235640321700879,0.09976590424776079,9.751811027526857,-1.0877575874328613,0.01178163941949606,-0.0029160131234675646,0.007710250094532967
1706235640330516120,0.0990850180387497,9.746045112609865,-1.0754131078720095,0.013722449541091919,-0.003698097076267004,0.007419173140078783
1706235640340178342,0.0904284417629242,9.753834724426271,-1.07979154586792,0.014165950939059258,-0.004571058787405491,0.006314133759588003
1706235640350470897,0.08718574047088623,9.760238647460938,-1.072665572166443,0.013085038401186466,-0.005543688777834177,0.005019793286919594
1706235640361021175,0.08599935472011566,9.750801086425781,-1.0725778341293337,0.010579991154372692,-0.0063544209115207195,0.004303421825170517
1706235640371053786,0.09078027307987213,9.749454498291016,-1.0746687650680544,0.006985518150031567,-0.006679686717689037,0.004663090221583843
1706235640380805823,0.0797431468963623,9.766337394714357,-1.076160788536072,0.0029422477819025517,-0.006493167951703072,0.006086351815611124
1706235640391104564,0.0954854264855385,9.76735591888428,-1.0865201950073242,-0.0007974022882990539,-0.005830841138958931,0.008010298013687134
1706235640400865286,0.07796014845371246,9.760584831237795,-1.0796557664871218,-0.0036377515643835068,-0.004480018280446529,0.00953935831785202
1706235640410611823,0.08997736871242523,9.762609481811523,-1.0812190771102907,-0.005319718271493912,-0.002326293382793665,0.009930348955094814
1706235640422190768,0.07854438573122026,9.746728897094727,-1.0720195770263672,-0.005999084562063217,0.00018234419985674322,0.009086810983717442
1706235640430944768,0.08310011029243469,9.753814697265625,-1.0762073993682861,-0.0061247278936207294,0.0021040451247245073,0.00762998778373003
1706235640440653786,0.07525863498449327,9.745728492736818,-1.0711458921432497,-0.006225586403161287,0.002515375381335616,0.006468655541539192
1706235640450906916,0.08230119198560716,9.74777126312256,-1.0820168256759646,-0.00672330055385828,0.0010476764291524887,0.006219013594090939
1706235640461125786,0.08779443800449371,9.749464988708498,-1.0734876394271853,-0.007706283591687679,-0.0019515337189659476,0.006877838633954525
1706235640470973527,0.07787194848060608,9.758236885070803,-1.0706750154495241,-0.00883395317941904,-0.005575959105044603,0.008005724288523197
1706235640480676249,0.09039333462715149,9.75283718109131,-1.07763946056366,-0.009611380286514759,-0.008656289428472519,0.00919027253985405
1706235640491118175,0.0778556764125824,9.744714736938477,-1.076324701309204,-0.009753638878464699,-0.010303376242518425,0.010194286704063416
1706235640500926008,0.08337855339050293,9.758572578430178,-1.0827156305313113,-0.009314721450209618,-0.010407625697553158,0.01078674104064703
1706235640510534805,0.08136179298162462,9.75786876678467,-1.070300579071045,-0.008626445196568966,-0.009445853531360626,0.010759049095213413
1706235640522458712,0.08240436762571336,9.754840850830078,-1.0633790493011475,-0.00807113852351904,-0.007895474322140217,0.0102391904219985
1706235640531160323,0.0736187994480133,9.769693374633789,-1.0646022558212282,-0.007892977446317673,-0.006027593277394772,0.00987821165472269
1706235640540819305,0.07950138300657274,9.76496696472168,-1.070887804031372,-0.008235394954681396,-0.003925863653421402,0.01044076681137085
1706235640550486768,0.08307554572820665,9.77676296234131,-1.066226363182068,-0.009115481749176979,-0.001479330938309431,0.012125208042562008
1706235640560749101,0.0824432224035263,9.758218765258789,-1.066425442695618,-0.01025297213345766,0.0014072265475988388,0.014448304660618305
1706235640570568249,0.08877829462289812,9.771023750305178,-1.058462381362915,-0.011113326996564865,0.0044781481847167015,0.016758393496274948
1706235640580254990,0.09042406827211381,9.75990104675293,-1.056620001792908,-0.011174606159329414,0.0071232193149626255,0.01874409057199955
1706235640590966231,0.09190463274717332,9.77273464202881,-1.065831542015076,-0.010136399418115616,0.008787578903138638,0.020478427410125732
1706235640600701305,0.1080772951245308,9.760944366455078,-1.0725908279418945,-0.007955369539558887,0.009335001930594444,0.021989818662405014
1706235640610480786,0.10085690021514893,9.756193161010742,-1.0564014911651611,-0.004710770212113857,0.008963234722614288,0.022974226623773575
1706235640621056231,0.09705290198326111,9.76597309112549,-1.060163974761963,-0.0006161252385936677,0.007883516140282154,0.023196250200271606
1706235640630758471,0.09656294435262681,9.767326354980469,-1.057775378227234,0.0037184017710387707,0.0063429721631109715,0.022946124896407127
1706235640640429805,0.09572894126176835,9.77272129058838,-1.0608680248260498,0.007342543452978134,0.004883091431111097,0.02279677242040634
1706235640650414175,0.09711994975805284,9.75481700897217,-1.0542094707489014,0.009478652849793434,0.004142314661294222,0.023118451237678528
1706235640660828212,0.09765295684337616,9.762253761291506,-1.0568352937698366,0.009935657493770123,0.004262568429112434,0.02397511526942253
1706235640670681675,0.09230417758226396,9.75918483734131,-1.0536485910415652,0.00909194815903902,0.00473172590136528,0.025259273126721382
1706235640680370619,0.10219255834817888,9.761242866516115,-1.0619897842407227,0.007591790985316038,0.004903905093669891,0.026745853945612907
1706235640690748193,0.09233444184064867,9.753437042236328,-1.054422736167908,0.006076636258512735,0.004462253302335739,0.028089258819818497
1706235640700641564,0.08228693902492523,9.756156921386719,-1.0565316677093506,0.004929215647280216,0.003388319630175829,0.02896961010992527
1706235640710315527,0.09328532963991167,9.762237548828125,-1.0583044290542605,0.0040311990305781364,0.00184006174094975,0.029298407956957817
1706235640721097582,0.10644422471523285,9.764285087585451,-1.068765997886658,0.003083929419517517,0.0002237005392089486,0.029138725250959396
1706235640730745564,0.08787714689970018,9.760544776916506,-1.0487040281295779,0.002232394414022565,-0.0008612147066742182,0.028515664860606194
1706235640740484434,0.09893323481082916,9.763934135437013,-1.0613563060760498,0.0019142463570460677,-0.0009894523536786437,0.02756953425705433
1706235640750412786,0.10668857395648956,9.76763916015625,-1.0543214082717898,0.0023203662130981684,-0.00015358036034740508,0.02669946290552616
1706235640760845249,0.08896312117576599,9.764944076538086,-1.0567667484283447,0.0033876392990350723,0.0013767237542197108,0.026294348761439323
1706235640770717490,0.10433629155158997,9.763935089111328,-1.067183494567871,0.0048811971209943295,0.003234375501051545,0.026425480842590332
1706235640780430045,0.09331466257572174,9.75381088256836,-1.0619813203811648,0.0063718827441334724,0.004942116793245077,0.026761293411254883
1706235640790889193,0.1019209623336792,9.748370170593263,-1.0484249591827393,0.007466708309948444,0.0058624232187867165,0.02684035710990429
1706235640800671230,0.10936168581247331,9.754472732543945,-1.0643333196640017,0.008080790750682354,0.005362780764698982,0.02658746764063835
1706235640810272101,0.10414548218250275,9.755822181701662,-1.0543441772460938,0.008523784577846527,0.003268851898610592,0.02631862834095955
1706235640820968434,0.09790936857461931,9.767986297607422,-1.0653941631317139,0.009225375950336456,0.00022158217325340956,0.026252923533320427
1706235640831006101,0.10698095709085466,9.761882781982422,-1.0531582832336426,0.010262769646942616,-0.002517171436920762,0.02633115090429783
1706235640840690045,0.1008714884519577,9.766613006591797,-1.064296007156372,0.011349866166710854,-0.003757484955713153,0.02641095407307148
1706235640850631879,0.0948612615466118,9.755807876586914,-1.0564376115798952,0.012152365408837795,-0.0030767442658543587,0.026412226259708405
1706235640860832267,0.09922898560762407,9.761863708496094,-1.0559519529342654,0.012374225072562695,-0.0010125942062586546,0.026339802891016006
1706235640870608879,0.10125678777694702,9.761894226074219,-1.0618759393692019,0.01184105034917593,0.0013743595918640494,0.02628711797297001
1706235640880277379,0.09641197323799133,9.767617225646974,-1.0612311363220215,0.010703706182539463,0.003222021507099271,0.02631702646613121
1706235640890942267,0.09241443127393724,9.763903617858888,-1.0660152435302734,0.009327339008450508,0.004284268710762262,0.02629835344851017
1706235640900691730,0.09188006073236467,9.753458023071289,-1.0590178966522217,0.00793417077511549,0.00472987350076437,0.025991030037403107
1706235640910309545,0.10188731551170349,9.756140708923342,-1.0609756708145144,0.006556872744113207,0.004643572494387627,0.02531842142343521
1706235640920859564,0.09650254249572754,9.762548446655273,-1.0630441904067995,0.005329781211912632,0.003918328322470188,0.024476082995533943
1706235640930905990,0.10087544471025468,9.755145072937013,-1.0690201520919802,0.004575058817863464,0.002616574289277196,0.023702472448349
1706235640940602971,0.08963799476623535,9.764921188354492,-1.0727351903915407,0.004499512258917093,0.0011268932139500976,0.022969618439674377
1706235640955969378,0.07701064646244049,9.755807876586914,-1.0678341388702393,0.004824001342058182,-7.241622370202094e-05,0.021990498527884483
1706235640960249471,0.08324628323316575,9.753780364990234,-1.0665589570999148,0.004721184726804495,-0.0007187268929556012,0.020576106384396553
1706235640971144027,0.0717575177550316,9.762556076049805,-1.0668113231658936,0.003292075591161847,-0.0009098195587284863,0.018927138298749924
1706235640981058916,0.08048588782548906,9.767980575561523,-1.0768933296203613,0.0002030970499617979,-0.0008446654537692666,0.0174575075507164
1706235640990885101,0.07328817993402482,9.762557029724123,-1.0725836753845215,-0.004118006676435471,-0.0004555668856482953,0.016349829733371735
1706235641003156175,0.08160176128149034,9.754463195800781,-1.0668593645095827,-0.008734781295061111,0.0004080849757883698,0.015472029335796833
1706235641012870101,0.07624749839305878,9.753123283386232,-1.0639736652374268,-0.012626095674932003,0.0014860437950119376,0.014767597429454327
1706235641026330027,0.09063683450222015,9.745718955993654,-1.0783101320266726,-0.015032005496323109,0.0020656080450862646,0.014423550106585026
1706235641031732897,0.08235383778810502,9.761236190795898,-1.0747669935226443,-0.015579413622617722,0.0014933000784367323,0.014475364238023758
1706235641040563860,0.08825987577438354,9.763919830322266,-1.0658215284347536,-0.014326250180602074,-0.00019568255811464041,0.01459565106779337
1706235641050316582,0.08878216892480852,9.75650405883789,-1.0725760459899902,-0.011769868433475494,-0.002148350467905402,0.014509778469800949
1706235641060916638,0.09452004730701447,9.76255989074707,-1.0659458637237549,-0.00862051360309124,-0.0033516157418489456,0.014306861907243729
1706235641070656378,0.09097588807344438,9.757513046264648,-1.073632001876831,-0.005466513801366091,-0.003353886306285858,0.014226973988115788
1706235641080481360,0.09109639376401903,9.75651264190674,-1.0742418766021729,-0.002682483522221446,-0.0023749377578496933,0.01434758398681879
1706235641090500397,0.08473036438226701,9.759187698364258,-1.066528081893921,-0.0005592336528934538,-0.0010246053570881486,0.014518633484840393
1706235641100263230,0.09484191983938219,9.762222290039062,-1.0690491199493408,0.0006546211079694331,0.00010195004142588004,0.014601319096982479
1706235641111074638,0.10053905099630357,9.747717857360842,-1.0656530857086182,0.0009864827152341604,0.0007019375334493816,0.014685777015984058
1706235641120573582,0.0989043638110161,9.75210952758789,-1.062833905220032,0.000954112212639302,0.0006334177451208234,0.015004443936049938
1706235641131088638,0.08453767746686937,9.758525848388672,-1.0787092447280886,0.0012203119695186615,-0.00021486927289515734,0.01568393036723137
1706235641140432249,0.09787084907293321,9.752442359924318,-1.0710726976394656,0.0019470204133540392,-0.0016883165808394551,0.016495635733008385
1706235641150585675,0.09411402791738512,9.763235092163086,-1.0683227777481081,0.0027759098447859287,-0.0032662604935467243,0.016938811168074608
1706235641160826564,0.09027960151433946,9.76760482788086,-1.0650683641433718,0.003355018561705947,-0.004279234446585178,0.016764624044299126
1706235641170569638,0.10269325226545335,9.763585090637209,-1.0710811614990234,0.003590870648622513,-0.0041322894394397736,0.016239313408732414
1706235641180368971,0.09474636614322662,9.754137992858888,-1.0760642290115359,0.003629753366112709,-0.0026459377259016037,0.015756988897919655
1706235641191227582,0.10265468060970306,9.755160331726076,-1.0750718116760254,0.003783582244068384,-0.0003940469759982079,0.015373576432466507
1706235641201081638,0.10650487244129181,9.767649650573732,-1.0760637521743777,0.004360545892268419,0.0015972612891346216,0.014829577878117561
1706235641210656286,0.11250273138284685,9.75782585144043,-1.0661913156509402,0.005607206374406815,0.002666425658389926,0.01394956186413765
1706235641221160656,0.10132178664207458,9.75819206237793,-1.0744068622589111,0.007668571546673775,0.0028363019227981567,0.012926442548632622
1706235641231039045,0.1035795658826828,9.765601158142092,-1.0653489828109743,0.010329118929803371,0.00244739162735641,0.012193174101412296
1706235641240735249,0.10066316276788713,9.764612197875977,-1.0770608186721804,0.012910217978060246,0.0019067368702962995,0.012063194066286087
1706235641251013267,0.11197713017463684,9.759535789489748,-1.072493076324463,0.01468697004020214,0.0016349683282896876,0.012485137209296227
1706235641261140749,0.10424672067165375,9.752099990844727,-1.0776597261428835,0.015430350787937641,0.0017823588568717241,0.013063431717455387
1706235641273723267,0.09832873195409776,9.753808021545412,-1.0773851871490479,0.015408461913466454,0.0019976019393652678,0.013309185393154621
1706235641280759341,0.10351841151714325,9.759865760803224,-1.0820446014404297,0.01491798646748066,0.0017254619160667062,0.012887603603303432
1706235641290686175,0.09296859800815582,9.758522033691406,-1.073677182197571,0.014040893875062466,0.0007807987276464701,0.011731568723917007
1706235641300395693,0.11056506633758545,9.753454208374023,-1.0732336044311523,0.012815219350159168,-0.000506416370626539,0.010127801448106766
1706235641314999156,0.08690638095140459,9.744678497314453,-1.0703179836273193,0.011419014073908329,-0.0017517884261906147,0.008688267320394516
1706235641321599193,0.09184937179088593,9.76121234893799,-1.074812412261963,0.010011845268309116,-0.002902405336499214,0.008034547790884972
1706235641336093675,0.10264199227094652,9.763588905334474,-1.0778679847717285,0.008531317114830017,-0.003955376800149679,0.00837364885956049
1706235641341054045,0.0988260954618454,9.760885238647461,-1.0781759023666384,0.006997773889452219,-0.004542534705251455,0.009339995682239532
1706235641355087693,0.09694204479455949,9.755487442016602,-1.0832768678665163,0.005778404884040356,-0.004210107494145632,0.010233711451292038
1706235641361116860,0.09486303478479387,9.752140045166016,-1.09055495262146,0.0052151805721223354,-0.003031617496162653,0.010372293181717396
1706235641370815452,0.07992502301931383,9.759894371032717,-1.0904322862625124,0.005173974670469761,-0.0016544919926673174,0.009280056692659855
1706235641381082545,0.07856302708387376,9.746381759643555,-1.0861121416091921,0.004971178714185953,-0.0007874192087911069,0.006845423020422459
1706235641394245637,0.08376707881689073,9.755837440490724,-1.0911835432052615,0.0037376899272203445,-0.000820228538941592,0.0034800407011061907
1706235641400712304,0.08971264958381653,9.743685722351076,-1.0933830738067627,0.001137657673098147,-0.0018065873300656676,-5.4644748161081225e-05
1706235641410603730,0.07674389332532884,9.758184432983398,-1.0912827253341677,-0.0022705786395817995,-0.0035256235860288143,-0.003100883448496461
1706235641421116749,0.08360973745584489,9.754811286926271,-1.0944385528564453,-0.005544097628444433,-0.005484504159539938,-0.005348300561308861
1706235641430357860,0.08821190148591997,9.750447273254396,-1.0874338150024414,-0.008006017655134201,-0.00703774206340313,-0.006755150854587555
1706235641440513878,0.10010664165019989,9.751106262207031,-1.082928776741028,-0.009248685091733932,-0.007771029602736235,-0.007343160454183817
1706235641451118174,0.10253541171550751,9.752483367919922,-1.0816659927368164,-0.008865785785019398,-0.007760345935821533,-0.007035471964627504
1706235641460686508,0.09656490385532379,9.75078868865967,-1.0840559005737305,-0.006581791676580906,-0.007372318767011166,-0.005745198577642441
1706235641470742434,0.10200943797826768,9.751776695251467,-1.0822856426239014,-0.002672051778063178,-0.0069563440047204494,-0.0036367024295032024
1706235641480781434,0.10405869781970978,9.758584976196289,-1.0848474502563477,0.0019900547340512276,-0.006687295623123646,-0.0011928557651117444
1706235641492323674,0.10330899059772491,9.754517555236818,-1.0870195627212527,0.006417013704776764,-0.006490806117653847,0.0009732872131280601
1706235641500376878,0.10316570103168488,9.75990962982178,-1.0861221551895144,0.009934605099260807,-0.006126305554062128,0.0023438362404704094
1706235641510585193,0.09968052804470062,9.759571075439453,-1.0932674407958984,0.012234540656208992,-0.005390647798776627,0.002640368416905403
1706235641521244045,0.09470081329345703,9.743017196655273,-1.087559700012207,0.013239973224699497,-0.004310091491788626,0.00185955164488405
1706235641530772860,0.09636493772268297,9.760599136352539,-1.092071533203125,0.01298536267131567,-0.003264389233663678,0.0002511930069886148
1706235641540839989,0.08916362375020982,9.74977207183838,-1.0799622535705566,0.011607321910560131,-0.002752043539658189,-0.0016940899658948183
1706235641551736619,0.09611201286315918,9.755837440490724,-1.0862505435943604,0.009390451945364475,-0.002947823377326131,-0.003312390763312578
1706235641561121989,0.08688078075647356,9.753140449523928,-1.0837811231613161,0.006758584175258875,-0.0036468387115746737,-0.004014032892882824
1706235641571221230,0.0916329175233841,9.7525110244751,-1.0956021547317507,0.00416146544739604,-0.00450934749096632,-0.0036615896970033646
1706235641580468730,0.08288851380348206,9.759902954101562,-1.087343692779541,0.0018994850106537342,-0.005227786023169756,-0.002724858932197094
1706235641593671452,0.09209325164556505,9.750121116638185,-1.1000239849090576,5.765286186942831e-05,-0.005580390337854624,-0.001984238624572754
1706235641600362230,0.08359619975090027,9.760246276855469,-1.0941035747528076,-0.0013876414159312844,-0.005483217071741819,-0.002087015425786376
1706235641610436415,0.07477544993162157,9.75452995300293,-1.0951830148696902,-0.002535194857046008,-0.005008861888200045,-0.00327810226008296
1706235641620895748,0.07393731921911241,9.74710464477539,-1.09519898891449,-0.0037133865989744663,-0.004353140946477652,-0.005311380606144667
1706235641630466008,0.07797539234161377,9.749464988708498,-1.0928478240966797,-0.005400465335696936,-0.0038776651490479708,-0.007587408181279898
1706235641640503860,0.08216892927885057,9.757537841796875,-1.0904139280319216,-0.007748479954898357,-0.0039781746454536915,-0.00944805983453989
1706235641651796934,0.07890403270721436,9.737312316894531,-1.0877957344055176,-0.010312488302588463,-0.004758229944854975,-0.010389299131929874
1706235641661402397,0.07935883104801178,9.753503799438477,-1.0854473114013672,-0.012378739193081856,-0.006064187735319138,-0.010155905038118362
1706235641670434897,0.07307554036378862,9.753850936889648,-1.0887278318405154,-0.01351754367351532,-0.0076528796926140785,-0.008797152899205685
1706235641680664434,0.08571271598339081,9.76092052459717,-1.0869504213333132,-0.013788770884275436,-0.009041068144142628,-0.006686175242066383
1706235641691333822,0.08123668283224107,9.751822471618654,-1.0891697406768799,-0.01346160564571619,-0.009567906148731709,-0.004419215954840183
1706235641700782878,0.08607271313667297,9.754518508911133,-1.0871710777282715,-0.012688960880041122,-0.00890794675797224,-0.002576821018010378
1706235641710985119,0.07366555184125902,9.759264945983888,-1.0752604007720947,-0.011570432223379612,-0.007341782096773386,-0.001434924895875156
1706235641721502211,0.07368903607130052,9.76027584075928,-1.0906379222869873,-0.010436824522912502,-0.005420343019068241,-0.0008178777061402798
1706235641730725452,0.0832865983247757,9.761634826660156,-1.0889343023300173,-0.009826062247157097,-0.0035252138040959835,-0.00039568019565194845
1706235641740952600,0.08072751760482788,9.752840995788576,-1.08360493183136,-0.01000966876745224,-0.0018350870814174414,-0.00011107195314252749
1706235641751186082,0.09190886467695238,9.758265495300295,-1.0845510959625244,-0.010649067349731922,-0.0005443947738967836,-6.853198283351958e-05
1706235641760785859,0.0847359150648117,9.753506660461428,-1.0758981704711914,-0.011015119962394238,9.99485346255824e-05,-0.00016021860938053578
1706235641770913100,0.09631753712892534,9.751489639282227,-1.068091869354248,-0.010472984984517097,-4.019643529318273e-05,3.34600372298155e-05
1706235641780956174,0.07502710074186326,9.752808570861818,-1.0692058801651003,-0.00886471662670374,-0.0009267769055441022,0.0010992686729878187
1706235641791611471,0.0886957198381424,9.759265899658203,-1.079167366027832,-0.0066687921062111855,-0.0023329737596213818,0.003390696831047535
1706235641800593100,0.08877681940793992,9.753528594970703,-1.0760931968688965,-0.004709897097200155,-0.0038087537977844477,0.0065581826493144035
1706235641810658785,0.08857787400484086,9.752500534057617,-1.0830591917037966,-0.0035137319937348366,-0.004873535595834255,0.009602558799088001
1706235641821022989,0.08093494921922685,9.76397228240967,-1.08101224899292,-0.0030749617144465446,-0.005298147443681955,0.01147052925080061
1706235641830431230,0.08522099256515503,9.761614799499513,-1.0748046636581423,-0.003213757649064064,-0.005032658576965332,0.01164240762591362
1706235641840454452,0.09183620661497117,9.771051406860352,-1.0627024173736572,-0.0037735048681497574,-0.003982914611697197,0.010462319478392601
1706235641851785934,0.08311384916305542,9.76902484893799,-1.0673986673355105,-0.004478849936276674,-0.0020376744214445353,0.009064458310604095
1706235641861336341,0.08379698544740678,9.759912490844727,-1.0670691728591921,-0.005011226516216993,0.0007020006887614727,0.008705112151801586
1706235641871214378,0.09189136326313019,9.765985488891602,-1.0631020069122314,-0.0052567897364497185,0.003715337021276355,0.009964517317712307
1706235641880850415,0.09421473741531372,9.750797271728516,-1.0675278902053835,-0.005194980185478926,0.006157347932457924,0.012559566646814346
1706235641891259174,0.08880541473627092,9.767344474792482,-1.0680683851242068,-0.004685462452471256,0.007272745948284864,0.01568778045475483
1706235641901035193,0.08765323460102081,9.76159191131592,-1.0647938251495361,-0.0036636055447161198,0.0068547725677490234,0.018446199595928192
1706235641910691378,0.08823282271623613,9.751793861389162,-1.0560587644577029,-0.002402250189334154,0.00535113038495183,0.020267993211746216
1706235641921149415,0.09949946403503418,9.761258125305178,-1.0576566457748415,-0.0013132179155945778,0.003410318633541465,0.021238628774881363
1706235641931233637,0.09207164496183397,9.751148223876953,-1.0633219480514529,-0.0005192309617996216,0.0014601920265704393,0.021901261061429977
1706235641940924896,0.08761230856180192,9.765993118286133,-1.0588496923446657,0.0001478565245633945,-0.0002435152855468914,0.02268020622432232
1706235641951093378,0.08176092803478241,9.757878303527834,-1.0596427917480469,0.0006943888147361577,-0.0014430137816816568,0.023604730144143105
1706235641961289396,0.0947450026869774,9.757865905761719,-1.0646615028381348,0.0008107597241178155,-0.0019123336533084512,0.024482809007167816
1706235641971177489,0.09943008422851562,9.77374267578125,-1.0676668882369997,0.0003585086378734559,-0.0016010373365134,0.025046125054359436
1706235641980947156,0.08509405702352525,9.756215095520021,-1.0672962665557861,-0.0002683209313545376,-0.0005867615109309554,0.024982938542962074
1706235641991385119,0.09554173797369005,9.760568618774414,-1.0636169910430908,-0.0005550748901441693,0.0009289770969189703,0.0241197869181633
1706235642001210730,0.09075331687927246,9.752494812011719,-1.062614917755127,-0.0003662551462184638,0.002433797577396035,0.022654682397842407
1706235642010941119,0.08173766732215881,9.766638755798342,-1.0614784955978396,8.082356362137944e-05,0.0032802869100123644,0.021132200956344604
1706235642021505489,0.09737998247146606,9.760909080505373,-1.0557218790054324,0.0004136117349844426,0.003223506500944495,0.020167894661426544
1706235642030312952,0.10219255834817888,9.75514888763428,-1.0556597709655762,0.0004426009545568377,0.0025695159565657377,0.02020387537777424
1706235642040359415,0.0910911336541176,9.76662826538086,-1.0583015680313113,0.00047237786930054426,0.0017744193319231272,0.02137119509279728
1706235642051293378,0.10098493844270708,9.773074150085451,-1.053595781326294,0.0009742295951582491,0.0012288064463064075,0.023412268608808517
1706235642061092119,0.0844814255833626,9.757867813110352,-1.0550147294998171,0.0020209839567542076,0.0013412245316430926,0.02580256015062332
1706235642079345304,0.07591256499290466,9.763249397277834,-1.0482151508331299,0.003101537935435772,0.0022669623140245676,0.02805870585143566
1706235642082706285,0.09388730674982072,9.764617919921875,-1.0526189804077148,0.0033444685395807028,0.0036239793989807367,0.029954450204968452
1706235642092862748,0.1071174144744873,9.777405738830568,-1.0534744262695312,0.0023215594701468945,0.004899634979665279,0.03146727383136749
1706235642101589804,0.09101858735084534,9.762898445129396,-1.0423382520675661,0.0007320694858208299,0.005984361283481121,0.032630905508995056
1706235642110788526,0.09956326335668565,9.769307136535646,-1.0451834201812744,-0.00019446751684881747,0.007034009322524071,0.03358833119273186
1706235642120427489,0.09792080521583557,9.758556365966797,-1.056695342063904,0.0001967960415640846,0.008007483556866646,0.034578800201416016
1706235642130580804,0.08853702247142792,9.769315719604492,-1.0484204292297363,0.001706718816421926,0.008601953275501728,0.0356002002954483
1706235642141217100,0.09584470838308336,9.764591217041016,-1.0474941730499268,0.0035936255007982254,0.008589045144617558,0.03634996712207794
1706235642151133526,0.0894889384508133,9.75007438659668,-1.0512074232101443,0.005005258601158857,0.007986563257873058,0.03663186356425285
1706235642160398563,0.09967911988496782,9.76085090637207,-1.041292428970337,0.005452043376863003,0.0068242596462368965,0.03656363859772682
1706235642171188896,0.08671920746564867,9.767611503601076,-1.0550715923309326,0.004997225012630224,0.005120403598994017,0.036424215883016586
1706235642180843656,0.09676747769117357,9.76930904388428,-1.050952672958374,0.004026859067380428,0.0032873116433620453,0.036382317543029785
1706235642191100804,0.0880798175930977,9.760531425476076,-1.051912784576416,0.0029295431450009346,0.0020975612569600344,0.03633030131459236
1706235642201278804,0.09286772459745408,9.764204978942873,-1.0472167730331423,0.0019568295683711767,0.0020209045615047216,0.03607502952218056
1706235642210977507,0.09179839491844177,9.762537002563477,-1.041912913322449,0.0012201056815683842,0.0028524426743388176,0.03567388653755188
1706235642223057118,0.08572567999362946,9.750728607177734,-1.0408146381378174,0.0007192876655608416,0.00394484493881464,0.035511985421180725
1706235642230940896,0.09301190823316575,9.760180473327638,-1.0568655729293825,0.0003545837535057217,0.0045492155477404594,0.035980384796857834
1706235642240620322,0.08988246321678162,9.760530471801758,-1.0529918670654297,6.758986273780465e-06,0.004172643180936575,0.036955416202545166
1706235642251742359,0.08187017589807512,9.759485244750977,-1.0545276403427126,-0.000374126888345927,0.002917539095506072,0.03773581236600876
1706235642260528137,0.07922235876321794,9.761878967285156,-1.0535391569137575,-0.0009092430118471384,0.0013745886972174048,0.0376359298825264
1706235642270367581,0.08683404326438904,9.751753807067873,-1.0516017675399782,-0.0018658803310245275,0.0001318833965342492,0.036515265703201294
1706235642281241007,0.08402550965547563,9.759506225585938,-1.0520124435424805,-0.003343945601955056,-0.0006026881746947765,0.03478440269827843
1706235642290828007,0.09159862250089647,9.758487701416016,-1.0504252910614014,-0.00501267472282052,-0.0009670209838077426,0.0330921970307827
1706235642300651267,0.09065905213356018,9.770981788635256,-1.0592360496520996,-0.006260762922465801,-0.00107086100615561,0.031942881643772125
1706235642310335155,0.08766067028045654,9.758177757263185,-1.0586961507797243,-0.006567174568772316,-0.00076511554652825,0.03139974921941757
1706235642320725655,0.07471920549869537,9.760177612304688,-1.0539947748184206,-0.005903051700443029,9.499542647972703e-05,0.03111862950026989
1706235642330813507,0.08580444753170013,9.766260147094727,-1.0608892440795898,-0.0048886449076235294,0.001317799324169755,0.030724970623850822
1706235642340518322,0.08413980156183244,9.759860038757326,-1.065197229385376,-0.004342175554484129,0.002524459036067128,0.030035410076379776
1706235642350493674,0.08725974708795549,9.756473541259766,-1.064976453781128,-0.0045971921645104885,0.003416983410716057,0.028929386287927628
1706235642361276804,0.08112104982137681,9.758817672729492,-1.0589244365692139,-0.005386675242334604,0.0037558414041996002,0.027340173721313477
1706235642370310767,0.07172057032585144,9.746684074401857,-1.0651820898056032,-0.006333142518997192,0.0033314856700599194,0.025456946343183517
1706235642381078396,0.08508128672838212,9.768301010131836,-1.0709218978881836,-0.007362772710621357,0.00209883414208889,0.02364496700465679
1706235642390379600,0.08195839822292328,9.752079963684084,-1.0612617731094363,-0.00852998998016119,0.00036671763518825173,0.022112946957349777
1706235642401258229,0.08655313402414323,9.753773689270021,-1.0680222511291504,-0.009625825099647045,-0.0012982265325263143,0.020883407443761826
1706235642411139729,0.09110373258590698,9.752752304077148,-1.061342716217041,-0.010197360068559647,-0.0025389206130057573,0.019997360184788704
1706235642421007952,0.08862086385488512,9.75750255584717,-1.0665481090545654,-0.009840931743383408,-0.0033784317784011364,0.01953357458114624
1706235642433106100,0.09300084412097931,9.758502006530763,-1.06126606464386,-0.008432332426309586,-0.003906756639480591,0.019509773701429367
1706235642446918322,0.10384248197078705,9.76387119293213,-1.0650168657302859,-0.006141912657767534,-0.004041398409754038,0.019851919263601303
1706235642451282470,0.09860050678253174,9.766618728637695,-1.0618348121643066,-0.003206458641216159,-0.0035582834389060736,0.02042223885655403
1706235642463270081,0.09790761768817902,9.750032424926758,-1.0558215379714968,0.0001498139463365078,-0.0023312524426728487,0.021102363243699074
1706235642474493192,0.10798803716897966,9.759836196899414,-1.056794047355652,0.0035754945129156113,-0.0006695259944535792,0.02191608026623726
1706235642481071359,0.090313158929348,9.771656990051271,-1.0708167552947998,0.006633404176682234,0.0008084041182883084,0.02293873019516468
1706235642490948970,0.0947047770023346,9.756107330322266,-1.0547615289688113,0.008875112980604172,0.0017988012405112386,0.023999517783522606
1706235642500963081,0.10799709707498552,9.773674964904787,-1.0652717351913454,0.009923391975462437,0.002484311116859317,0.024740882217884064
1706235642510661952,0.0972462370991707,9.770627021789553,-1.0621629953384402,0.009842497296631336,0.0032138267997652292,0.024970607832074165
1706235642520944007,0.10951927304267883,9.752064704895021,-1.062986731529236,0.009252357296645641,0.004240871407091618,0.02472054585814476
1706235642531075192,0.10247054696083069,9.749056816101076,-1.0708822011947634,0.00889606587588787,0.005326830316334963,0.024090200662612915
1706235642540906063,0.10174440592527391,9.761877059936523,-1.075974702835083,0.009208058007061481,0.005656834226101637,0.02308710664510727
1706235642550906766,0.09834179282188416,9.760866165161133,-1.0776547193527224,0.01011504977941513,0.0046549225226044655,0.02152627892792225
1706235642560995507,0.10246766358613969,9.767624855041506,-1.0735160112380984,0.011133454740047455,0.0027067307382822037,0.019214879721403122
1706235642570759563,0.08956493437290192,9.756144523620607,-1.0738067626953125,0.011714482679963112,0.0008320978959091008,0.01630338653922081
1706235642580553174,0.08742528408765794,9.751754760742188,-1.0796474218368532,0.011423719115555286,-0.00022503167565446347,0.013323944061994553
1706235642591277026,0.09195214509963989,9.75377082824707,-1.0786757469177246,0.0099646570160985,-0.0005407353746704757,0.010811319574713707
1706235642601094766,0.0831606537103653,9.76153087615967,-1.0867884159088135,0.007356096990406513,-0.0006943313637748361,0.008939377032220364
1706235642610759211,0.08019373565912248,9.750772476196289,-1.0969955921173096,0.003979336470365524,-0.0010752868838608265,0.007429427467286587
1706235642621174692,0.07922899723052979,9.756508827209474,-1.0997612476348877,0.00029054234619252384,-0.0016950089484453201,0.005636974237859249
1706235642631405915,0.08577107638120653,9.754154205322266,-1.0922194719314577,-0.003334827022626996,-0.0024373591877520084,0.0029159695841372013
1706235642641177470,0.0764448493719101,9.743677139282227,-1.0918823480606081,-0.006508262827992439,-0.0032354481518268585,-0.0007944992976263165
1706235642651174489,0.08482628315687181,9.745701789855959,-1.0963988304138184,-0.008879505097866058,-0.0041927313432097435,-0.004797226749360561
1706235642660394877,0.07820264995098114,9.750123023986818,-1.0953831672668457,-0.010305829346179962,-0.005541699007153511,-0.008169944398105145
1706235642671234377,0.08198399096727373,9.76055908203125,-1.0895234346389773,-0.010881466791033745,-0.007244838401675224,-0.0103427954018116
1706235642680998785,0.08246620744466783,9.753483772277834,-1.0928382873535156,-0.010850864462554455,-0.008735262788832188,-0.011172282509505749
1706235642690636118,0.0843271017074585,9.74705219268799,-1.0903095006942751,-0.010465952567756176,-0.009339527226984501,-0.010801211930811405
1706235642700527563,0.09031118452548981,9.745391845703125,-1.0935508012771609,-0.009844799526035786,-0.00898019503802061,-0.009606997482478619
1706235642710320600,0.08722952008247375,9.750097274780273,-1.0796574354171755,-0.008941490203142166,-0.008264955133199692,-0.008061648346483707
1706235642721081266,0.09053634107112885,9.761600494384766,-1.094132423400879,-0.007670269813388586,-0.00781970378011465,-0.006479282863438129
1706235642731256729,0.0864873304963112,9.757204055786133,-1.0822483301162722,-0.006085829809308052,-0.007653624750673771,-0.004985986743122339
1706235642741028526,0.08828226476907731,9.750424385070803,-1.0842022895812988,-0.004441124387085438,-0.007305178325623274,-0.003649743739515543
1706235642750905896,0.09541418403387071,9.7484130859375,-1.0927211046218874,-0.0030381116084754467,-0.006551375146955252,-0.0025067778769880533
1706235642761379229,0.09522053599357605,9.758870124816896,-1.0804131031036377,-0.001960163004696369,-0.005693756975233555,-0.0016142043750733137
1706235642771064544,0.10188667476177216,9.76194477081299,-1.0962035655975342,-0.0009648154955357313,-0.005063168704509735,-0.001080199028365314
1706235642780711563,0.10081528127193451,9.757884979248047,-1.0939083099365234,0.0003349895996507257,-0.00455286493524909,-0.0010363998590037227
1706235642791712470,0.10320051759481431,9.766645431518555,-1.0906434059143066,0.002200111746788025,-0.0037946058437228203,-0.0016417151782661676
1706235642800554600,0.09316144138574602,9.75822162628174,-1.0901546478271484,0.004553871229290962,-0.002553697908297181,-0.002894957084208727
1706235642811295211,0.09673908352851868,9.755512237548828,-1.0895359516143799,0.00690367491915822,-0.0009334703208878636,-0.004442669451236725
1706235642821480322,0.09998553246259691,9.751807212829592,-1.0987099409103396,0.008583486080169678,0.0005737955216318369,-0.0058007133193314075
1706235642831359988,0.08466825634241106,9.755203247070312,-1.101100564002991,0.009169436059892178,0.0013089209096506238,-0.006791030056774616
1706235642841167655,0.08784797042608262,9.749795913696289,-1.098145127296448,0.008542331866919994,0.0008785700192674994,-0.007675716187804937
1706235642851158118,0.08568849414587022,9.755180358886719,-1.0876525640487673,0.006719331722706556,-0.000620797392912209,-0.00875827856361866
1706235642861423359,0.08841935545206071,9.752172470092773,-1.0959562063217165,0.003937657922506332,-0.002704326529055834,-0.009908677078783512
1706235642871164951,0.08036880195140839,9.755189895629883,-1.099145293235779,0.000732484448235482,-0.0047389729879796505,-0.010703414678573608
1706235642880873248,0.09440554678440094,9.749460220336914,-1.0951006412506104,-0.002265525283291936,-0.006218185648322105,-0.010966164991259575
1706235642891453322,0.09365978837013245,9.753510475158693,-1.095091223716736,-0.004468232858926058,-0.006967279594391584,-0.010884009301662445
1706235642901273433,0.08986686915159227,9.750125885009766,-1.088649392127991,-0.005377935245633125,-0.00713514955714345,-0.010657226666808128
1706235642911021118,0.0909136012196541,9.755879402160646,-1.091548204421997,-0.004855457693338394,-0.006994678173214197,-0.010264900512993336
1706235642921256655,0.0825565755367279,9.763622283935547,-1.0886001586914062,-0.003350334009155631,-0.006685319356620312,-0.00955972820520401
1706235642930381211,0.09475482255220415,9.757904052734375,-1.097809672355652,-0.0016885331133380532,-0.006071422714740038,-0.008519957773387432
1706235642941220544,0.0965404361486435,9.756880760192873,-1.0998953580856325,-0.0005082078860141337,-0.004949492868036032,-0.007444001734256744
1706235642951119192,0.09153270721435547,9.752159118652344,-1.096470594406128,0.00013987119018565863,-0.0034425363410264254,-0.006877718027681112
1706235642960891470,0.08939489722251892,9.749112129211428,-1.0900079011917116,0.0005546726752072573,-0.0020868577994406223,-0.007187779527157545
1706235642970601359,0.09228353947401048,9.745083808898928,-1.0898689031600954,0.0008923973655328155,-0.0015556487487629056,-0.008153066970407963
1706235642981379914,0.09686664491891862,9.752159118652344,-1.0838489532470703,0.0011230832897126675,-0.0022827114444226027,-0.009052401408553123
1706235642990800470,0.09268467873334886,9.754857063293459,-1.0944304466247559,0.0012907139025628567,-0.0041359239257872105,-0.009172462858259678
1706235643000664211,0.09013547748327257,9.75454330444336,-1.0914140939712527,0.0015176670858636498,-0.00637558288872242,-0.00831738580018282
1706235643010347877,0.08868996798992157,9.749795913696289,-1.0892317295074463,0.001772713498212397,-0.00809427909553051,-0.006901788525283337
1706235643021877099,0.09652911871671678,9.755547523498537,-1.0905748605728152,0.0018629953265190125,-0.008789238519966602,-0.005536463111639023
1706235643030519803,0.09721165150403978,9.758233070373537,-1.0838649272918701,0.00173805165104568,-0.008480259217321873,-0.004575885832309723
1706235643041356766,0.086192786693573,9.75115966796875,-1.0880881547927859,0.0016062792856246233,-0.007441923022270203,-0.003999476321041584
1706235643051321581,0.0855000913143158,9.754874229431154,-1.075737714767456,0.0015786689473316073,-0.006060201674699783,-0.0035248026251792908
1706235643060430248,0.09525004774332048,9.751502037048342,-1.0833715200424197,0.001435181824490428,-0.00480256462469697,-0.002774347085505724
1706235643071302562,0.08899524807929993,9.76601791381836,-1.0774257183074951,0.0009720935486257076,-0.003993728663772345,-0.0014768532710149884
1706235643080949562,0.08798346668481828,9.751177787780763,-1.081787109375,0.0002925134904216975,-0.0035761790350079536,0.0003443306777626276
1706235643091627877,0.08402166515588762,9.755906105041506,-1.0851473808288574,-0.0004272194637451321,-0.0032814869191497564,0.002343802247196436
1706235643101436877,0.08712771534919739,9.756547927856445,-1.0711371898651123,-0.0011860312661156058,-0.0030033932998776436,0.004049590788781643
1706235643113756636,0.07823909074068071,9.752487182617188,-1.066716551780701,-0.0020958699751645327,-0.0028242289554327726,0.005281281191855669
1706235643121108636,0.09232872724533081,9.768385887145998,-1.0859375,-0.0032225805334746838,-0.0027740737423300743,0.006332367192953825
1706235643131012618,0.08443951606750488,9.75961208343506,-1.0872411727905273,-0.004435041453689337,-0.002649608300998807,0.00740209361538291
1706235643140900136,0.07958541810512543,9.759945869445803,-1.0851591825485232,-0.005442539229989052,-0.00211665709502995,0.008065426722168922
1706235643153888914,0.0900895893573761,9.7595911026001,-1.081330180168152,-0.006084362510591745,-0.0010845324723049998,0.007710947189480066
1706235643160744081,0.08276505768299103,9.76026248931885,-1.0771901607513428,-0.006398857571184635,0.00016317212430294603,0.006303549278527498
1706235643171230099,0.08869549632072449,9.761617660522461,-1.0744876861572266,-0.0064346808940172195,0.0012434014352038503,0.004525765776634216
1706235643180433970,0.08858210593461992,9.758237838745117,-1.073155164718628,-0.00619878713041544,0.001928570680320263,0.0033341848757117987
1706235643190917710,0.09246493130922319,9.757206916809084,-1.0706187486648562,-0.005670823156833649,0.0021552382968366146,0.0034211173187941313
1706235643201095377,0.08617444336414337,9.757207870483398,-1.0637358427047732,-0.00482410890981555,0.0019240104593336582,0.004966007079929113
1706235643211402877,0.09455426782369615,9.761279106140138,-1.0694255828857422,-0.0037261564284563065,0.0013029533438384533,0.00771942688152194
1706235643221458099,0.0884968861937523,9.761262893676758,-1.071544885635376,-0.002546425675973296,0.0005193944089114666,0.011118383146822453
1706235643231616303,0.10288484394550323,9.772411346435547,-1.0562549829483034,-0.0014051907928660512,-2.0118104657740332e-05,0.014427156187593937
1706235643240514562,0.08880665153265001,9.76699447631836,-1.0634257793426514,-0.000265831797150895,0.00017006850976031274,0.017139168456196785
1706235643251105618,0.1000937670469284,9.761588096618654,-1.0694078207015993,0.0009543680935166776,0.001370543148368597,0.01918468251824379
1706235643260862247,0.09092315286397935,9.771387100219727,-1.0695568323135378,0.0022062361240386963,0.003354016924276948,0.020569851621985435
1706235643271061970,0.08991157263517381,9.768012046813967,-1.054502606391907,0.003279432188719511,0.005543248262256384,0.021190980449318886
1706235643280954970,0.09943245351314545,9.75819206237793,-1.06443989276886,0.003909838851541281,0.007412062492221594,0.02119486778974533
1706235643290950747,0.09171899408102037,9.75684928894043,-1.0578339099884033,0.004006610717624426,0.008510684594511986,0.021088527515530586
1706235643300512433,0.0874754786491394,9.758886337280273,-1.055285930633545,0.0037169568240642548,0.008408522233366966,0.021365001797676086
1706235643311015025,0.09723962098360063,9.760905265808107,-1.0574777126312256,0.0031912510748952627,0.006989405024796724,0.022264569997787476
1706235643332889173,0.09518746286630632,9.76968765258789,-1.0611457824707031,0.0019636573269963264,0.002542954171076417,0.02554607391357422
1706235643340965322,0.08894541114568712,9.763259887695312,-1.0636119842529297,0.0016633570194244385,0.0013821058673784137,0.027114715427160263
1706235643352883284,0.09359222650527954,9.762245178222656,-1.0561938285827637,0.001629011589102447,0.0016347240889444947,0.027966853231191635
1706235643401039581,0.1229686811566353,9.764995574951172,-1.0532002449035645,0.005267900414764881,0.0071651325561106205,0.026731036603450775
1706235643411263673,0.11478903144598009,9.763978004455568,-1.054155468940735,0.00890079140663147,0.00639223400503397,0.027766451239585876
1706235643421605099,0.11325374990701677,9.76699733734131,-1.0413522720336914,0.013660448603332043,0.0053603071719408035,0.029324296861886978
1706235643431362377,0.1164727509021759,9.761266708374023,-1.056706190109253,0.018726710230112076,0.0045704166404902935,0.03116295114159584
1706235643441319025,0.11880101263523102,9.768682479858398,-1.052005171775818,0.02305213361978531,0.004279716871678829,0.0329970084130764
1706235643454027692,0.1082441881299019,9.775775909423828,-1.0480855703353884,0.025935214012861252,0.004539988469332457,0.03444484993815422
1706235643460906821,0.10767758637666704,9.760930061340334,-1.0525161027908327,0.027124732732772827,0.005373572930693626,0.035234615206718445
1706235643472780877,0.09674880653619768,9.756872177124023,-1.0429186820983887,0.026575682684779167,0.006602638866752386,0.03543638437986374
1706235643481031655,0.10205613076686859,9.760919570922852,-1.062420725822449,0.024358177557587624,0.007599142845720053,0.03533148020505905
1706235643490915766,0.09666109830141069,9.74507236480713,-1.0616432428359988,0.02078676037490368,0.007578638382256031,0.035016294568777084
1706235643501040081,0.10153166949748993,9.761251449584961,-1.0471501350402832,0.016512950882315636,0.006103683728724718,0.03426126763224602
1706235643511107303,0.08602236211299896,9.754487037658693,-1.0631946325302126,0.012327171862125397,0.0033562746830284595,0.0329478494822979
1706235643520789173,0.09283261001110077,9.768351554870607,-1.0609428882598877,0.008743367157876492,0.00016932228754740208,0.03131173923611641
1706235643530698062,0.08125399798154832,9.756206512451172,-1.0655528306961062,0.005793702322989702,-0.002327557420358062,0.029577162116765976
1706235643541515007,0.08736149221658708,9.765313148498537,-1.0571395158767702,0.0032109080348163843,-0.0033321890514343977,0.0277863759547472
1706235643550983747,0.0833166241645813,9.755537033081055,-1.0662578344345095,0.0007408353849314153,-0.0027693510055541992,0.026028404012322426
1706235643561437358,0.08746690303087236,9.764301300048828,-1.0615822076797488,-0.0016466821543872356,-0.0011974477674812078,0.024495935067534447
1706235643572108970,0.09310548752546312,9.757535934448242,-1.0617866516113281,-0.003707285737618804,0.0006037626881152391,0.02333441562950611
1706235643581183525,0.08459996432065965,9.762275695800781,-1.0694335699081423,-0.0050470419228076935,0.0020175245590507984,0.02256891503930092
1706235643591185692,0.08668741583824158,9.767298698425295,-1.0537068843841553,-0.005438864231109619,0.002793670631945133,0.02212458662688732
1706235643601112692,0.08706336468458177,9.764973640441896,-1.070115566253662,-0.005068259313702583,0.0031011011451482773,0.021926824003458023
1706235643611417710,0.07172632962465288,9.75688362121582,-1.0746750831604004,-0.004453558940440416,0.0033074310049414635,0.02186472900211811
1706235643620719173,0.07399508357048035,9.755498886108398,-1.0695472955703738,-0.00429168064147234,0.0035283048637211323,0.021578410640358925
1706235643630873821,0.060358382761478424,9.756522178649904,-1.0655605792999268,-0.005314861889928579,0.003476432291790843,0.020663781091570854
1706235643642311303,0.05931634828448296,9.757863998413086,-1.062161922454834,-0.008031687699258327,0.0028212270699441433,0.01920526847243309
1706235643652483210,0.06675510853528978,9.769689559936523,-1.0631474256515505,-0.012455226853489876,0.001629842328839004,0.017828598618507385
1706235643660780303,0.06247478723526001,9.737311363220217,-1.0738726854324343,-0.01791907474398613,0.00035078771179541945,0.017159854993224144
1706235643670543877,0.07493735104799272,9.753493309020998,-1.0659558773040771,-0.02319638431072235,-0.0007780135492794216,0.017281511798501015
1706235643680773784,0.07441433519124986,9.752501487731935,-1.0626518726348877,-0.0269614364951849,-0.0020218072459101677,0.017794249579310417
1706235643691298914,0.08184533566236497,9.75552749633789,-1.0655906200408936,-0.028265010565519333,-0.003586593782529235,0.018347356468439102
1706235643701515340,0.07491385191679002,9.75687026977539,-1.0703774690628054,-0.026868874207139015,-0.005174862686544657,0.018841957673430443
1706235643710880599,0.08497127890586853,9.74914073944092,-1.068828821182251,-0.023346377536654472,-0.006282520014792681,0.019183998927474022
1706235643721562284,0.0953933969140053,9.753166198730469,-1.0732486248016357,-0.018715161830186844,-0.006686419248580933,0.01916646398603916
1706235643731943340,0.08658084273338318,9.75520420074463,-1.077122449874878,-0.013823915272951126,-0.006557957269251347,0.018585730344057083
1706235643741009895,0.07237927615642548,9.752819061279297,-1.0666086673736572,-0.009273423813283443,-0.006187884137034416,0.017373133450746536
1706235643753153710,0.09610239416360856,9.769718170166016,-1.0741227865219118,-0.005749979056417942,-0.005691795144230127,0.015737781301140785
1706235643761102229,0.08463736623525621,9.750826835632326,-1.0773307085037234,-0.0037684559356421232,-0.004936804063618183,0.014107312075793743
1706235643771314914,0.08385634422302246,9.7565393447876,-1.0676795244216921,-0.0031985854730010033,-0.0038135824725031853,0.012809365056455135
1706235643781185210,0.0774887725710869,9.75147819519043,-1.0686495304107666,-0.0035584827419370413,-0.002591678872704506,0.012003639712929726
1706235643792743377,0.06948406249284746,9.75047016143799,-1.0770399570465088,-0.0045912135392427444,-0.0018123798072338104,0.01180674321949482
1706235643800553395,0.0698167234659195,9.750146865844727,-1.078642249107361,-0.006383323110640049,-0.0018985520582646132,0.012114294804632664
1706235643810629303,0.07235220074653625,9.759571075439453,-1.0784997940063477,-0.009066074155271053,-0.0028878566808998585,0.01244683563709259
1706235643821177118,0.056597519665956504,9.75587558746338,-1.0782396793365479,-0.012500354088842869,-0.004328877665102482,0.012257471680641174
1706235643830997488,0.05732577294111252,9.758922576904297,-1.0764549970626833,-0.016385948285460472,-0.005485985893756151,0.011346891522407532
1706235643841141173,0.07050001621246338,9.75148677825928,-1.0746380090713503,-0.020467525348067284,-0.005824241787195206,0.009966285899281502
1706235643853394655,0.07196620851755144,9.752182006835938,-1.0737777948379519,-0.024276386946439743,-0.005360415205359459,0.008636550977826118
1706235643866920229,0.07766164839267731,9.745746612548828,-1.0726861953735352,-0.026936141774058342,-0.004620893392711878,0.00786571018397808
1706235643871412655,0.08188431710004808,9.759939193725586,-1.0739085674285889,-0.02757095918059349,-0.004246187396347523,0.007914475165307522
1706235643881560525,0.07200811058282854,9.749152183532717,-1.0760834217071533,-0.02588224597275257,-0.004503895062953234,0.008692891336977482
1706235643892972284,0.08258980512619019,9.757262229919435,-1.0860023498535156,-0.02240362949669361,-0.005167613737285137,0.009760716930031776
1706235643900759877,0.07731452584266663,9.758928298950195,-1.0827060937881472,-0.018237970769405365,-0.005792220588773489,0.010428783483803272
1706235643911084395,0.09230243414640428,9.746098518371584,-1.075427770614624,-0.014410289004445076,-0.006013087462633848,0.010116413235664368
1706235643921036192,0.08804573863744737,9.767691612243654,-1.07881498336792,-0.011354946531355381,-0.005733532831072807,0.008828314021229744
1706235643931641080,0.09320522844791412,9.752167701721193,-1.0771186351776123,-0.008905086666345596,-0.005052722990512848,0.007172718644142151
1706235643940696266,0.09772127866744995,9.757935523986818,-1.0807020664215088,-0.006651860196143389,-0.0040885768830776215,0.005849539302289486
1706235643955525562,0.10614972561597825,9.758573532104492,-1.069871783256531,-0.004209303762763739,-0.0030233634170144796,0.005247244145721197
1706235643961482580,0.10113411396741868,9.75319004058838,-1.0727394819259646,-0.0012760994723066688,-0.0021068069618195295,0.005485013127326965
1706235643971535543,0.10351170599460602,9.755880355834961,-1.0701375007629395,0.002210157224908471,-0.0015466547338292003,0.006566568277776241
1706235643980626043,0.10141460597515106,9.758589744567873,-1.0781668424606325,0.005912373773753643,-0.0014481904217973351,0.008312023244798183
1706235643991104321,0.0991465523838997,9.750500679016115,-1.0780512094497683,0.009214816614985466,-0.001753678428940475,0.010226660408079624
1706235644001521969,0.10351522266864777,9.76264762878418,-1.0785138607025146,0.011538611724972725,-0.002279478358104825,0.011624539270997047
1706235644011561488,0.10143298655748369,9.752193450927734,-1.0780540704727175,0.012634017504751682,-0.0028045005165040493,0.011998837813735008
1706235644020903599,0.10041175782680511,9.750817298889162,-1.0744982957839968,0.012669076211750507,-0.003172287717461586,0.011319437064230442
1706235644031691136,0.099698044359684,9.76265621185303,-1.0794355869293213,0.012039346620440483,-0.003402838483452797,0.010008732788264751
1706235644041073210,0.10632579028606415,9.751172065734865,-1.0699743032455447,0.011155459098517895,-0.003563189646229148,0.00866788811981678
1706235644052579506,0.10229443758726121,9.751506805419922,-1.0723468065261843,0.010408020578324795,-0.0036534657701849937,0.007836069911718369
1706235644060856506,0.1050364598631859,9.767025947570803,-1.0758628845214844,0.010120118036866188,-0.003699834458529949,0.007845713756978512
1706235644070855432,0.09364775568246843,9.75926399230957,-1.069237232208252,0.01035902090370655,-0.003619500668719411,0.008679037913680077
1706235644081144117,0.08982326090335846,9.759624481201172,-1.0935889482498171,0.010763959027826786,-0.0031347896438091993,0.009913711808621883
1706235644091561228,0.08012650161981584,9.748817443847656,-1.0866856575012207,0.010590285994112492,-0.0021729033906012774,0.01075289212167263
1706235644101235673,0.07437939941883087,9.762981414794922,-1.0765160322189333,0.009015556424856186,-0.0011266006622463465,0.010349676944315434
1706235644111421247,0.07469303905963898,9.754553794860842,-1.0808305740356445,0.0055495803244411945,-0.0004876521707046777,0.008535713888704777
1706235644125352525,0.0673070326447487,9.757577896118164,-1.0795156955718994,0.00032025904511101544,-0.00041600342956371605,0.006057432387024164
1706235644131137506,0.0690900981426239,9.757577896118164,-1.0856857299804688,-0.005961262155324221,-0.0007658873219043016,0.003900368232280016
1706235644141170358,0.06984013319015503,9.745793342590334,-1.0762486457824707,-0.012302635237574577,-0.001346530974842608,0.002616646233946085
1706235644151323525,0.06804298609495164,9.750814437866211,-1.0711344480514529,-0.017742564901709557,-0.0021423944272100925,0.002325158566236496
1706235644160642395,0.07302386313676835,9.756941795349123,-1.0765023231506348,-0.021593887358903885,-0.00326710962690413,0.003027628641575575
1706235644188322636,0.06844415515661241,9.747468948364258,-1.0786926746368408,-0.023597629740834236,-0.004646869841963053,0.004603159613907337
1706235644190817562,0.08947227895259857,9.75656032562256,-1.0640748739242556,-0.023246824741363525,-0.006849326658993959,0.008535852655768394
1706235644203279580,0.07324114441871643,9.762644767761232,-1.0802482366561892,-0.021820535883307457,-0.007013994734734297,0.010145620442926884
1706235644211299932,0.0856732800602913,9.75963878631592,-1.0769978761672976,-0.019776001572608948,-0.006250342354178429,0.011409621685743332
1706235644225586043,0.08728476613759996,9.758610725402834,-1.0710101127624512,-0.017173726111650467,-0.0046156286261975765,0.012159153819084167
1706235644231828321,0.09413492679595947,9.768075942993164,-1.0729771852493288,-0.014144466258585453,-0.002466494683176279,0.012281951494514942
1706235644240862988,0.08270001411437988,9.760653495788576,-1.0742273330688477,-0.010813911445438862,-0.00023211666848510504,0.011984003707766533
1706235644251822414,0.09196235984563829,9.760292053222656,-1.0639063119888308,-0.007456986699253321,0.0017648455686867237,0.011647474952042103
1706235644266290914,0.08910271525382996,9.759275436401367,-1.0691086053848269,-0.004528419114649296,0.003237618599087,0.01165738794952631
1706235644272484562,0.09396012127399445,9.74882698059082,-1.0597443580627441,-0.0023632848169654608,0.0038821855559945107,0.012332282029092312
1706235644281885339,0.10253844410181047,9.76671028137207,-1.069106459617615,-0.0009173683356493711,0.0035014033783227205,0.013787507079541683
1706235644295731006,0.09570040553808214,9.765677452087404,-1.0586515665054324,0.00022094667656347156,0.0023030219599604607,0.01583773083984852
1706235644301539543,0.10742811858654022,9.755552291870117,-1.0519052743911745,0.001559974392876029,0.0009907431667670608,0.0181572325527668
1706235644310994784,0.11083921790122986,9.770732879638672,-1.063612699508667,0.003451835596933961,0.0002745901874732226,0.020558282732963562
1706235644321805747,0.1008339375257492,9.758242607116701,-1.06699538230896,0.00603219261392951,0.00042766291880980134,0.022879550233483315
1706235644334630858,0.09637667238712311,9.767039299011232,-1.0629456043243408,0.009045051410794258,0.0013285327004268765,0.024681948125362396
1706235644342399654,0.10368417948484422,9.768037796020508,-1.0508687496185303,0.011739546433091164,0.002656663302332163,0.025524165481328964
1706235644353939599,0.09399956464767456,9.757906913757326,-1.0583804845809939,0.013308041729032993,0.004071946721524,0.025539617985486984
1706235644362325136,0.09709253162145616,9.76467514038086,-1.063720941543579,0.013388904742896557,0.005249185021966696,0.025334006175398827
1706235644372320543,0.10546464473009111,9.76695442199707,-1.0554333925247195,0.012167532928287983,0.00590570829808712,0.025333654135465622
1706235644381261191,0.09536018967628479,9.766969680786133,-1.0510191917419434,0.010286412201821804,0.006030308082699776,0.025607028976082802
1706235644390884654,0.09529882669448853,9.756832122802734,-1.0566761493682861,0.008506710641086102,0.005881857126951218,0.02619435265660286
1706235644401015969,0.09530179947614671,9.764577865600586,-1.0547847747802734,0.007222112268209457,0.005632417276501656,0.027153488248586655
1706235644411134636,0.0862521603703499,9.760897636413576,-1.0571159124374392,0.006341379601508379,0.005242838989943266,0.028342168778181076
1706235644421618821,0.11424122750759125,9.752786636352539,-1.0585364103317263,0.00561306020244956,0.004635520279407501,0.02942257933318615
1706235644431148580,0.10579959303140642,9.765317916870117,-1.0658909082412722,0.005141161382198334,0.003760663326829672,0.03001238778233528
1706235644441121673,0.10201261937618256,9.757177352905273,-1.0607707500457764,0.005474525038152933,0.002662986982613802,0.029789626598358154
1706235644451370413,0.10968160629272461,9.759861946105959,-1.060990571975708,0.00696932477876544,0.001563234836794436,0.028659919276833534
1706235644463101358,0.10263514518737793,9.754802703857422,-1.059160351753235,0.009355156682431698,0.0006829364574514329,0.026922160759568214
1706235644476744673,0.09651049971580505,9.75646495819092,-1.0579566955566406,0.011932133696973324,3.9582399040227756e-05,0.025171272456645966
1706235644481450747,0.10600528120994568,9.760883331298828,-1.0570895671844482,0.013884947635233402,-0.0004825612995773554,0.023994801566004753
1706235644490777321,0.11363381147384644,9.763885498046875,-1.0517196655273438,0.014728992246091366,-0.0008902394911274314,0.023749345913529396
1706235644501015265,0.09863426536321641,9.757494926452638,-1.060225009918213,0.014678469859063625,-0.0009989094687625766,0.024488836526870728
1706235644511054876,0.12044982612133026,9.76290035247803,-1.0553091764450075,0.0143726272508502,-0.0006602376815862954,0.025933917611837387
1706235644521517191,0.116146557033062,9.760193824768068,-1.0600858926773074,0.014448164962232113,4.710651410277933e-05,0.027541881427168846
1706235644530949247,0.11198082566261292,9.765582084655763,-1.0590832233428955,0.015399117022752762,0.0009226592956110835,0.028750712051987648
1706235644541594247,0.11959829926490784,9.759843826293945,-1.0540823936462402,0.017344938591122627,0.001809487584978342,0.029238790273666382
1706235644550616802,0.11962188035249711,9.771992683410646,-1.0657008886337282,0.019940806552767754,0.0026450655423104763,0.029024174436926842
1706235644560894062,0.10228016972541809,9.768974304199219,-1.0646606683731081,0.02261406183242798,0.0035084427800029516,0.028281716629862785
1706235644570936024,0.09600806981325151,9.762895584106445,-1.0653442144393923,0.024578247219324112,0.004571305587887764,0.027089126408100128
1706235644591715191,0.09251049160957336,9.755137443542482,-1.0772135257720947,0.022434581071138382,0.006740355398505926,0.023217078298330307
1706235644600971321,0.07213357836008073,9.756494522094727,-1.0755711793899538,0.01746753230690956,0.006801981944590807,0.020378561690449715
1706235644611111580,0.07043492048978807,9.748392105102539,-1.0799720287322998,0.010562791489064693,0.005614696070551872,0.017003878951072693
1706235644622602136,0.06565965712070465,9.751752853393555,-1.0718777179718018,0.0025772321969270706,0.0032138931564986706,0.013499334454536438
1706235644631048228,0.08123990148305894,9.751774787902834,-1.0752172470092773,-0.005599243100732565,-7.1749409471522085e-06,0.010467080399394035
1706235644641519839,0.0695198103785515,9.748043060302734,-1.070547699928284,-0.012871678918600082,-0.003417951287701726,0.008479687385261059
1706235644651743321,0.06756564229726793,9.753422737121584,-1.0710510015487673,-0.01819678023457527,-0.00637554656714201,0.007849343121051788
1706235644660958950,0.06244585290551186,9.738600730895998,-1.0708028078079226,-0.02123749814927578,-0.00849747285246849,0.008514459244906902
1706235644671015691,0.0592029131948948,9.75278949737549,-1.0818279981613161,-0.02258019521832466,-0.00980899017304182,0.010032249614596367
1706235644680700895,0.07465515285730363,9.755808830261232,-1.0773609876632693,-0.023209519684314728,-0.010541553609073162,0.011625988408923149
1706235644692941598,0.06324270367622375,9.75921154022217,-1.0807981491088867,-0.023761821910738945,-0.010700949467718601,0.012462657876312733
1706235644701611950,0.07848359644412994,9.75887966156006,-1.0846365690231325,-0.024247286841273308,-0.010015343315899372,0.012066292576491833
1706235644714673747,0.07981256395578386,9.753793716430664,-1.0742840766906738,-0.024279000237584114,-0.00835453625768423,0.01049690693616867
1706235644721584876,0.09289515763521196,9.751775741577148,-1.0678571462631228,-0.023311110213398933,-0.006073818542063236,0.008354080840945244
1706235644731384098,0.0966579243540764,9.76493549346924,-1.0703089237213135,-0.02080468274652958,-0.003872423432767391,0.006654564756900072
1706235644740838876,0.10008557140827179,9.755136489868164,-1.0636476278305056,-0.01648082584142685,-0.0022621010430157185,0.006357224192470312
1706235644751959043,0.09191452711820604,9.747390747070312,-1.0722447633743288,-0.01061397884041071,-0.0013552489690482616,0.007809504866600037
1706235644760888284,0.1113320142030716,9.756821632385256,-1.0644471645355225,-0.004084743559360504,-0.0011817470658570528,0.010596075095236301
1706235644771181913,0.10443062335252763,9.768317222595217,-1.0727435350418093,0.0020903064869344234,-0.00169558881316334,0.013821499422192574
1706235644781611395,0.10408212989568712,9.761907577514648,-1.0689542293548584,0.0072770086117088795,-0.0023927874863147736,0.01655360870063305
1706235644790840284,0.11728467792272569,9.760542869567873,-1.084191679954529,0.011257290840148926,-0.002495622495189309,0.018099011853337288
1706235644800784598,0.1141815334558487,9.76662826538086,-1.0694315433502197,0.014166034758090973,-0.001615601358935237,0.018082771450281143
1706235644811318617,0.11781733483076097,9.759209632873537,-1.0745480060577393,0.016460970044136047,4.245910167810507e-05,0.016597503796219826
1706235644823745580,0.1072264164686203,9.748058319091797,-1.078643798828125,0.018576372414827347,0.0018790134927257895,0.014266660436987877
1706235644831399543,0.11146467924118042,9.752442359924318,-1.0742532014846804,0.02052544243633747,0.003043484641239047,0.011879246681928635
1706235644861570747,0.11037719994783403,9.754812240600586,-1.0725466012954714,0.02076604589819908,-0.0013602322433143854,0.008646081201732159
1706235644871729617,0.10690270364284515,9.760897636413576,-1.0788646936416628,0.018354428932070732,-0.0039971922524273396,0.009069808758795261
1706235644885922728,0.10301095992326738,9.758886337280273,-1.0725463628768923,0.015781056135892868,-0.005972033366560936,0.009802093729376793
1706235644891011247,0.09279617667198181,9.74975109100342,-1.0808537006378174,0.013820508494973183,-0.006685894913971424,0.010437632910907269
1706235644901188487,0.0978575199842453,9.755822181701662,-1.0802607536315918,0.012518801726400852,-0.006156861782073975,0.010656898841261864
1706235645071372932,0.07372959703207017,9.757538795471193,-1.0937347412109375,-0.016952449455857277,-0.007965944707393646,-0.006706319283694029
1706235645131162135,0.07871906459331512,9.757902145385742,-1.076498031616211,-0.021013721823692322,-0.003481481224298477,-0.0009049989166669548
1706235645141301376,0.07972923666238786,9.75889301300049,-1.073540806770325,-0.022259917110204697,-0.005058764014393091,0.0008628778159618378
1706235645150752783,0.09492097795009613,9.762275695800781,-1.0822136402130127,-0.021755937486886978,-0.0057120127603411674,0.002728344639763236
1706235645161720357,0.10377834737300873,9.757206916809084,-1.074859619140625,-0.019193410873413086,-0.005194113589823246,0.004649647977203131
1706235645170655228,0.10551013052463531,9.76396369934082,-1.0669950246810915,-0.014516252093017101,-0.003688388504087925,0.006428388878703117
1706235645180725228,0.12519380450248718,9.766343116760256,-1.0772236585617068,-0.007915478199720383,-0.0016471708659082651,0.007995638996362686
1706235645191402987,0.12247750163078308,9.76261615753174,-1.0766513347625732,0.00017150338680949062,0.000515929888933897,0.009403149597346783
1706235645201698172,0.11442872881889343,9.755187034606935,-1.0752493143081667,0.009066936559975147,0.002476111985743046,0.01053660549223423
1706235645210695913,0.1152252182364464,9.753471374511719,-1.0663783550262451,0.017674898728728294,0.0038050515577197075,0.011211978271603584
1706235645220994561,0.11324873566627502,9.755518913269045,-1.0691888332366943,0.02459525503218174,0.004018303472548723,0.011540168896317482
1706235645231618709,0.10989972203969957,9.762598037719727,-1.0692037343978884,0.028741108253598213,0.0029731302056461573,0.011918986216187477
1706235645243644394,0.09557919204235077,9.761240005493164,-1.071918845176697,0.029748450964689255,0.001157782506197691,0.012640283443033695
1706235645251472098,0.09786354005336761,9.76191806793213,-1.079387903213501,0.02783104218542576,-0.000536083010956645,0.013592112809419632
1706235645261679117,0.07603222876787187,9.754487037658693,-1.065573573112488,0.02348257042467594,-0.0014068811433389783,0.014346513897180557
1706235645271670672,0.08521722257137299,9.759900093078615,-1.079179286956787,0.01729787141084671,-0.0013591157039627433,0.014553574845194817
1706235645290880580,0.07548102736473083,9.762261390686037,-1.075369715690613,0.009967823512852192,-0.0007699370034970343,0.01416570134460926
1706235645303367635,0.07469638437032701,9.745387077331545,-1.078402042388916,-0.004959808196872473,0.0004961593076586723,0.012153415940701962
1706235645311069654,0.05580354481935501,9.749765396118164,-1.0670424699783327,-0.011352885514497757,0.0004443483194336295,0.010999550111591816
1706235645330330080,0.061638560146093375,9.753168106079102,-1.074315667152405,-0.01671423763036728,-0.000612882780842483,0.010186351835727692
1706235645331672931,0.07447295635938646,9.760599136352539,-1.076085090637207,-0.021093370392918587,-0.002583995694294572,0.009978607296943665
1706235645342079302,0.061384327709674835,9.75417995452881,-1.0804808139801025,-0.024412469938397408,-0.00472627766430378,0.010297724977135658
1706235645356410191,0.06716212630271912,9.750787734985352,-1.0775976181030273,-0.02643209882080555,-0.0061849807389080524,0.010685471817851067
1706235645361309505,0.06740428507328033,9.75416660308838,-1.0669614076614382,-0.027141574770212173,-0.006640097592025995,0.01070956140756607
1706235645371237209,0.08078957349061967,9.754894256591797,-1.0751183032989502,-0.026783429086208344,-0.0063506257720291615,0.010400884784758091
1706235645381491098,0.08096423000097276,9.761306762695312,-1.071321964263916,-0.025486677885055542,-0.005702253896743059,0.010166091844439507
1706235645398504672,0.07816097140312195,9.758941650390625,-1.0637949705123904,-0.02320273220539093,-0.004860193468630314,0.010369393043220043
1706235645400875098,0.07725032418966295,9.769416809082031,-1.0684504508972168,-0.020074859261512756,-0.0037538139149546623,0.011190949939191341
1706235645411269450,0.06947572529315948,9.759621620178224,-1.066420078277588,-0.016716094687581062,-0.002237495733425021,0.012649154290556908
1706235645431025005,0.07467480748891832,9.761294364929201,-1.0628409385681152,-0.012581713497638702,0.0014932550257071853,0.016804736107587814
1706235645443761061,0.07502419501543046,9.761297225952148,-1.0590723752975466,-0.01245750579982996,0.0027606606017798185,0.019187523052096367
1706235645464447394,0.07985992729663849,9.751165390014648,-1.0554115772247314,-0.014470330439507961,0.003086054464802146,0.023738576099276543
1706235645470968765,0.07363985478878021,9.760286331176758,-1.0583630800247195,-0.01569364219903946,0.0025041678454726934,0.025645261630415916
1706235645482314598,0.0719997361302376,9.756229400634766,-1.0519094467163086,-0.016548195853829384,0.0015838408144190907,0.027232501655817032
1706235645492507654,0.0807856246829033,9.75723171234131,-1.054168701171875,-0.016902081668376923,0.00046057518920861185,0.028475137427449226
1706235645501518394,0.06239207461476327,9.767020225524904,-1.0594325065612793,-0.016865648329257965,-0.0005917145172134042,0.02940785326063633
1706235645511642783,0.0777941718697548,9.76131820678711,-1.0571721792221072,-0.016720455139875412,-0.001191396964713931,0.03001345507800579
1706235645523206191,0.0806877464056015,9.756908416748047,-1.0622152090072634,-0.0167334396392107,-0.0010377845028415322,0.030157750472426414
1706235645530830228,0.07341396063566209,9.75520420074463,-1.0514026880264284,-0.016841430217027664,-0.000250118289841339,0.029756957665085793
1706235645541267894,0.07210404425859453,9.765330314636232,-1.0469064712524414,-0.016775410622358322,0.0006510310340672731,0.029039908200502396
1706235645554035339,0.07683271169662476,9.749134063720703,-1.0537402629852295,-0.016492854803800583,0.0011933782370761037,0.02858734503388405
1706235645560951579,0.07894740253686906,9.761285781860352,-1.0544090270996094,-0.01615043729543686,0.0011801974615082145,0.028903871774673462
1706235645572488283,0.0770571380853653,9.767340660095217,-1.048438310623169,-0.015794841572642326,0.0006788736791349947,0.029976975172758102
1706235645581292746,0.07475253194570543,9.764993667602539,-1.0493247509002686,-0.015360428020358086,0.0001181903135147877,0.031425733119249344
1706235645590793913,0.07301714271306993,9.763289451599123,-1.052549719810486,-0.014889671467244625,0.00011228745279368013,0.03288835287094116
1706235645601813487,0.064826101064682,9.757565498352053,-1.0516173839569092,-0.014634550549089909,0.0009164862567558885,0.03410269320011139
1706235645611000357,0.07136724144220354,9.774437904357912,-1.0523548126220703,-0.014958171173930168,0.0022438401356339455,0.03485526517033577
1706235645622598413,0.07513479888439178,9.769355773925781,-1.0441157817840576,-0.016037549823522568,0.0037181300576776266,0.03508562594652176
1706235645631779339,0.07192504405975342,9.755851745605469,-1.0468127727508545,-0.01758532039821148,0.00519575597718358,0.035023752599954605
1706235645641783172,0.07404080778360368,9.756196975708008,-1.0501776933670046,-0.01900019496679306,0.006426687352359295,0.03507073223590851
1706235645651883450,0.06907886266708374,9.759233474731445,-1.0419315099716189,-0.019820736721158028,0.006844100076705217,0.035479385405778885
1706235645662805302,0.06770114600658417,9.750465393066406,-1.0459545850753786,-0.02000606618821621,0.006008130963891745,0.03626057878136635
1706235645670787024,0.0701395943760872,9.768678665161133,-1.0461018085479736,-0.01988178677856922,0.004030822776257992,0.03730955347418785
1706235645680804005,0.06935188174247742,9.762949943542482,-1.0521091222763064,-0.01984090358018875,0.0016198590165004134,0.03840425983071327
1706235645691592542,0.07411473989486694,9.753809928894045,-1.0442692041397097,-0.020045483484864235,-0.0002593586395960301,0.03919796645641327
1706235645701264728,0.07705532014369965,9.765960693359375,-1.0391560792922976,-0.02033533714711666,-0.001036416506394744,0.03948528319597244
1706235645716591820,0.08154907822608948,9.7636194229126,-1.0437953472137451,-0.020316068083047867,-0.0007654973887838423,0.039474036544561386
1706235645717840839,0.07386426627635956,9.763957977294922,-1.0375469923019411,-0.019600242376327515,0.00024852529168128967,0.03962544724345207
1706235645730832394,0.08664101362228394,9.766987800598146,-1.0572092533111572,-0.018092896789312363,0.0017007151618599892,0.04019245505332947
1706235645740300283,0.08512406796216966,9.773733139038086,-1.0504226684570312,-0.01598530076444149,0.003340843366459012,0.04088924825191498
1706235645760697561,0.07710336148738861,9.769320487976076,-1.0474724769592285,-0.013552703894674778,0.005077306646853685,0.0410642996430397
1706235645760784968,0.07505140453577043,9.766324996948242,-1.0473980903625488,-0.011209080927073956,0.006893956568092108,0.04034079983830452
1706235645774994468,0.07096855342388153,9.758885383605959,-1.0454916954040527,-0.00960356742143631,0.008561410941183567,0.03898215293884277
1706235645780494227,0.07443850487470628,9.756526947021484,-1.0485528707504275,-0.009335283190011978,0.009538560174405575,0.03760490566492081
1706235645790581968,0.06716273725032806,9.769663810729982,-1.0507376194000244,-0.01056341826915741,0.009309460408985615,0.03669077530503273
1706235645800269505,0.06750387698411943,9.759213447570803,-1.0499449968338015,-0.012967174872756004,0.007900506258010864,0.03632451221346855
1706235645811181413,0.06206774711608887,9.75481700897217,-1.046863317489624,-0.016021890565752983,0.005886205472052097,0.03629104048013687
1706235645821134783,0.05862174928188324,9.77272129058838,-1.0524939298629763,-0.01927867718040943,0.0038900456856936216,0.03635153919458389
1706235645830526283,0.07565858215093614,9.75514888763428,-1.052536964416504,-0.02240230329334736,0.002373323542997241,0.03634243458509445
1706235645840520709,0.07662083208560944,9.766650199890138,-1.0574642419815066,-0.02490849979221821,0.0016375051345676184,0.03608991950750351
1706235645850210135,0.0659094750881195,9.758168220520021,-1.042711138725281,-0.02611403912305832,0.0016724779270589352,0.03546376898884773
1706235645862410542,0.07255208492279053,9.776766777038576,-1.0567808151245117,-0.02569005638360977,0.002238665707409382,0.03458968177437782
1706235645870872561,0.07573383301496507,9.761208534240724,-1.0571494102478027,-0.024019470438361168,0.0031829834915697575,0.03376128152012825
1706235645880895876,0.07486194372177124,9.751447677612305,-1.0572898387908936,-0.021796507760882378,0.004368005320429802,0.03305380791425705
1706235645890476042,0.07098419964313507,9.757867813110352,-1.0550751686096191,-0.019588753581047058,0.005291622132062912,0.032286785542964935
1706235645900166116,0.07708653807640076,9.756174087524414,-1.0586135387420654,-0.01779608242213726,0.005250539630651474,0.03134310618042946
1706235645910831987,0.08560689538717271,9.762578010559084,-1.0543178319931032,-0.016580447554588318,0.0040094428695738316,0.030303075909614563
1706235645923409264,0.07907553017139435,9.759217262268068,-1.0452852249145508,-0.015705792233347893,0.0020509096793830395,0.029412085190415382
1706235645931063561,0.08596194535493852,9.759890556335451,-1.0480815172195437,-0.014716400764882565,0.00018768073641695082,0.02908352017402649
1706235645940072727,0.08480758219957353,9.76934814453125,-1.0653754472732546,-0.013317663222551346,-0.000919738900847733,0.029636550694704056
1706235645950559098,0.0889146625995636,9.765640258789062,-1.0599478483200075,-0.011486157774925232,-0.0009151860722340643,0.03076898865401745
1706235645959846801,0.08752599358558655,9.75649929046631,-1.054441571235657,-0.009362934157252312,0.0002149516367353499,0.031613364815711975
1706235645969979172,0.08376032859086992,9.77101802825928,-1.0556397438049316,-0.007195339072495699,0.002035538898780942,0.031548868864774704
1706235645980021709,0.09682664275169373,9.76291275024414,-1.0514029264450075,-0.005278917029500008,0.0038971782196313143,0.030710896477103233
1706235645992007727,0.09338780492544176,9.772385597229006,-1.0644795894622803,-0.0037380473222583532,0.0054018679074943066,0.029669323936104774
1706235646000783135,0.08368074148893358,9.762242317199709,-1.0617969036102295,-0.0024476139806210995,0.006503108888864517,0.02880079858005047
1706235646010358042,0.08693765848875047,9.762923240661623,-1.0549408197402956,-0.0013776199193671346,0.007248325273394585,0.028063615784049034
1706235646021586135,0.0849507823586464,9.75718402862549,-1.0631206035614014,-0.0007933398592285812,0.007539520505815744,0.027323707938194275
1706235646035361524,0.0890636146068573,9.764928817749023,-1.0602765083312988,-0.0009407221805304289,0.0071808653883636,0.026598496362566948
1706235646039923079,0.08631506562232971,9.760202407836914,-1.0667459964752197,-0.001730664516799152,0.0061615388840436935,0.02590964362025261
1706235646050048450,0.08207736909389496,9.75213623046875,-1.06982958316803,-0.002822739537805319,0.004730223678052425,0.025131141766905785
1706235646059794338,0.07647501677274705,9.758555412292482,-1.0618964433670046,-0.003966012038290501,0.0031248561572283506,0.024061178788542747
1706235646069835246,0.09280268847942352,9.757881164550781,-1.0729296207427979,-0.005138672888278961,0.0014584120362997055,0.02263619191944599
1706235646079929264,0.0747073218226433,9.753852844238281,-1.0735344886779785,-0.006304963491857052,-0.00011909743625437841,0.020966654643416405
1706235646090323135,0.09690466523170471,9.757897377014162,-1.073857069015503,-0.007254156284034252,-0.0014186023036018014,0.01913110725581646
1706235646100455190,0.07828468829393388,9.763604164123537,-1.0664095878601074,-0.007724252063781023,-0.002297251718118787,0.017180202528834343
1706235646110578209,0.09342552721500397,9.75281620025635,-1.0729736089706423,-0.007566211745142937,-0.0026295052375644445,0.015348970890045166
1706235646122077987,0.10076458752155304,9.7625732421875,-1.0657979249954226,-0.006756816990673542,-0.0023958540987223387,0.014015539549291134
1706235646131555190,0.09157589077949524,9.759916305541992,-1.0714975595474245,-0.005239250138401985,-0.0017637275159358978,0.0134429344907403
1706235646140787857,0.08777671307325365,9.76260757446289,-1.0759414434432986,-0.003042379394173622,-0.0009288455476053059,0.013591447845101357
1706235646150833820,0.09898712486028673,9.756209373474123,-1.0766043663024902,-0.000595010002143681,-2.423393561912235e-05,0.014058033004403114
1706235646160161838,0.08789951354265214,9.761577606201172,-1.0764529705047607,0.0014803503872826695,0.0007863790960982442,0.014249840751290321
1706235646170192320,0.08557026088237762,9.754200935363771,-1.0804522037506104,0.002749016508460045,0.001297868904657662,0.013739774003624916
1706235646180239079,0.07619462162256242,9.758569717407227,-1.0845893621444704,0.0029091655742377043,0.0013553549069911242,0.012424599379301071
1706235646190830486,0.0722835510969162,9.763948440551758,-1.0707066059112549,0.0016560906078666449,0.0009628618718124926,0.010474532842636108
1706235646210013635,0.08261522650718689,9.755530357360842,-1.0737197399139404,-0.0053937071934342384,0.00015974904817994684,0.006500000134110451
1706235646224273301,0.07391653954982758,9.75416374206543,-1.0765643119812012,-0.010101902298629284,0.00039631087565794587,0.0053886594250798225
1706235646229921190,0.06921033561229706,9.760268211364748,-1.0895093679428103,-0.014188598841428757,0.0007933569140732288,0.005072339903563261
1706235646240093079,0.05956445634365082,9.752159118652344,-1.0854160785675049,-0.01703377440571785,0.0008789783460088074,0.005232347175478935
1706235646250171986,0.07368175685405731,9.750123977661133,-1.087351202964783,-0.01885829120874405,0.0003945284115616232,0.005212722811847925
1706235646260678098,0.07208555191755296,9.749797821044922,-1.0831617116928103,-0.02017294615507126,-0.0007414505234919488,0.004508424550294876
1706235646269998172,0.0761619508266449,9.752851486206055,-1.0854637622833252,-0.021112415939569473,-0.002473757602274418,0.003143280278891325
1706235646280071246,0.058800652623176575,9.76264762878418,-1.0944093465805056,-0.021512936800718307,-0.0044584632851183414,0.001503706444054842
1706235646290667912,0.0698758438229561,9.735293388366701,-1.0892111063003542,-0.02145899459719658,-0.006130659487098455,-0.00010415212454972789
1706235646300193005,0.06636635959148407,9.744076728820803,-1.0856877565383913,-0.021383652463555336,-0.007259086240082979,-0.0015936794225126505
1706235646310766523,0.06101996451616287,9.74575424194336,-1.0833274126052859,-0.02166462317109108,-0.008242504671216011,-0.002829854842275381
1706235646321177579,0.06292760372161865,9.75994873046875,-1.0868847370147705,-0.022438373416662216,-0.009478786960244179,-0.0035132397897541523
1706235646330326320,0.06738363951444627,9.749819755554201,-1.0860117673873904,-0.02366301231086254,-0.010698194615542889,-0.0034447507932782173
1706235646340335653,0.07170252501964569,9.755891799926758,-1.0758190155029297,-0.025042865425348282,-0.011233136989176273,-0.0027001695707440376
1706235646350897968,0.06995564699172974,9.763641357421875,-1.0731682777404785,-0.026027124375104904,-0.010655209422111511,-0.0014059756649658084
1706235646360515597,0.07880049198865892,9.7626428604126,-1.0758965015411377,-0.02608380652964115,-0.008908858522772789,0.0004706816398538649
1706235646369952338,0.07384534925222398,9.752188682556154,-1.0794955492019656,-0.024965310469269753,-0.0062209428288042545,0.002902768785133958
1706235646387008653,0.07750584930181505,9.748814582824709,-1.0747504234313965,-0.02279817871749401,-0.0032512489706277847,0.0055232844315469265
1706235646396513264,0.08083803951740265,9.764668464660646,-1.0717798471450808,-0.02002113126218319,-0.0009739181841723621,0.007803410291671753
1706235646400873209,0.08351846039295197,9.758262634277344,-1.0806188583374023,-0.017135100439190865,2.884337300201878e-05,0.009425167925655842
1706235646409830709,0.08215101808309556,9.755901336669922,-1.0813165903091433,-0.014458337798714638,-2.8090194973628968e-05,0.010286057367920876
1706235646420951301,0.08553072065114976,9.758944511413576,-1.089818835258484,-0.012121708132326603,-0.0005646597710438073,0.010256838984787464
1706235646429984801,0.07680456340312958,9.760639190673828,-1.0810928344726562,-0.010204258374869823,-0.00112205243203789,0.00918026827275753
1706235646440007560,0.07744483649730682,9.764009475708008,-1.0801461935043337,-0.008866393938660622,-0.0013885489897802472,0.007171741686761379
1706235646460025820,0.07504030317068101,9.760983467102053,-1.0813543796539307,-0.008666310459375381,-1.8861202988773584e-05,0.0026633001398295164
1706235646470503023,0.07955102622509003,9.746104240417482,-1.0738497972488406,-0.009655753150582314,0.0016620154492557049,0.0012736686039716005
1706235646479961431,0.07937876880168915,9.759654045104982,-1.08396315574646,-0.010935122147202492,0.0031703575514256954,0.0008659540326334536
1706235646490488709,0.0834002271294594,9.758273124694826,-1.079510569572449,-0.012086912989616394,0.0035909635480493307,0.0014638350112363696
1706235646502483153,0.06482196599245073,9.753193855285646,-1.0801711082458496,-0.012797639705240726,0.002674420829862356,0.002720385091379285
1706235646509923190,0.07866912335157396,9.76200580596924,-1.080934762954712,-0.013137256726622581,0.0008994336822070181,0.004098190926015377
1706235646521364264,0.07917003333568573,9.75759792327881,-1.0794275999069216,-0.013463759794831276,-0.00098410714417696,0.005172785837203264
1706235646529996597,0.06461265683174133,9.770788192749023,-1.091015100479126,-0.013984154909849167,-0.0022563745733350515,0.0057038478553295135
1706235646539984838,0.07499348372220994,9.751174926757812,-1.0761152505874636,-0.014725473709404469,-0.002434944501146674,0.0055672540329396725
1706235646549918264,0.07728561758995056,9.757632255554201,-1.0811967849731445,-0.01569209061563015,-0.0015760395908728242,0.004842889029532671
1706235646569949264,0.07809526473283769,9.750170707702638,-1.0716401338577273,-0.017193743959069252,0.0005744052468799055,0.003245297819375992
1706235646582260264,0.07526466250419617,9.759632110595703,-1.0728458166122439,-0.01691274717450142,0.0006707561551593244,0.003223607549443841
1706235646601764597,0.08251641690731049,9.757928848266602,-1.075840711593628,-0.01449566800147295,-0.0012414722004905343,0.005838574375957251
1706235646610608634,0.09411372989416124,9.767400741577148,-1.0807951688766482,-0.012881998904049397,-0.002372326562181115,0.007958181202411652
1706235646623828708,0.0916721597313881,9.757949829101562,-1.0733197927474978,-0.010983367450535297,-0.0028799432329833508,0.009753948077559471
1706235646629897301,0.09983836114406586,9.759956359863281,-1.0779824256896973,-0.008572310209274292,-0.002443359699100256,0.010714489035308361
1706235646640107097,0.09280820935964586,9.767712593078615,-1.0670342445373535,-0.005543248727917671,-0.0012000248534604907,0.010821681469678879
1706235646650476949,0.09425335377454759,9.757622718811037,-1.0684264898300173,-0.00212843413464725,0.0004347546200733632,0.010539696551859379
1706235646660191838,0.08225774765014648,9.759955406188967,-1.0665392875671387,0.0010532246669754386,0.0020210740622133017,0.010545280762016773
1706235646670394616,0.0960463508963585,9.760944366455078,-1.0641918182373047,0.0032138293609023094,0.003143591806292534,0.011340308003127575
1706235646680417449,0.0800646021962166,9.75929927825928,-1.0694411993026736,0.0038407202810049057,0.003545238636434078,0.012994281947612762
1706235646700179357,0.09348340332508087,9.761632919311523,-1.0619254112243652,0.0009959193412214518,0.0025843018665909767,0.017409129068255424
1706235646710209375,0.08596987277269365,9.765711784362795,-1.0643351078033447,-0.0012486048508435488,0.0018756509525701404,0.01939673162996769
1706235646721541597,0.08031677454710008,9.763996124267578,-1.0621705055236816,-0.0030484485905617476,0.001522896927781403,0.020985955372452736
1706235646729996338,0.0799560546875,9.766702651977539,-1.0607411861419678,-0.0042004697024822235,0.0017774819862097502,0.022099046036601067
1706235646740271412,0.08947336673736572,9.767399787902834,-1.058260202407837,-0.005011598579585552,0.002665487350896001,0.022785095497965813
1706235646750471264,0.08902581036090851,9.761621475219727,-1.0552010536193848,-0.005719750188291073,0.00399175938218832,0.023272838443517685
1706235646762081819,0.08208525925874711,9.765695571899414,-1.064477324485779,-0.006199389696121216,0.00538642518222332,0.023841306567192078
1706235646770047671,0.08836019784212114,9.76568603515625,-1.0540515184402468,-0.006271549966186285,0.00644879462197423,0.02458927035331726
1706235646780045245,0.08445661514997484,9.76567268371582,-1.0596302747726443,-0.005988893564790487,0.006980768404901028,0.02540876902639866
1706235646790182023,0.08794424682855607,9.768705368041992,-1.061023831367493,-0.00553828664124012,0.007070206571370363,0.026151111349463463
1706235646800237060,0.07926056534051897,9.753865242004396,-1.0581439733505251,-0.005110838916152716,0.006916276179254055,0.02667808160185814
1706235646813312838,0.08384258300065996,9.755558013916016,-1.0673402547836306,-0.004918637219816446,0.006515836343169212,0.02684662863612175
1706235646822697986,0.07631397992372514,9.75248432159424,-1.0467658042907715,-0.005180833395570517,0.005564562510699034,0.026607312262058258
1706235646840875856,0.09553760290145874,9.747778892517092,-1.047802209854126,-0.007392562925815582,0.001578991417773068,0.026475166901946068
1706235646850440616,0.09541884809732439,9.768359184265138,-1.0526323318481445,-0.008675756864249706,-0.0006206160760484636,0.027866920456290245
1706235646864618634,0.08089480549097063,9.766003608703615,-1.051767110824585,-0.008998989127576351,-0.0021397359669208527,0.030285485088825226
1706235646870434356,0.08701422065496446,9.767670631408693,-1.0482635498046875,-0.007969911210238934,-0.0024196060840040445,0.03296258673071861
1706235646881395486,0.06912169605493547,9.762289047241211,-1.0513354539871218,-0.006188186351209879,-0.0012122459011152387,0.035111118108034134
1706235646890169356,0.09960967302322388,9.763288497924805,-1.0521162748336794,-0.00475000636652112,0.0011092793429270387,0.036329057067632675
1706235646904385838,0.10163980722427368,9.76161289215088,-1.0482627153396609,-0.0041909790597856045,0.0036820608656853437,0.03659994900226593
1706235646910889968,0.09595660865306854,9.77036762237549,-1.0487273931503298,-0.003929482772946358,0.005675144027918577,0.03619502857327461
1706235646924435023,0.09037448465824127,9.762598991394045,-1.044961929321289,-0.0029963261913508177,0.006742877885699272,0.035581499338150024
1706235646930909060,0.08955185860395433,9.766996383666992,-1.0459258556365967,-0.0011601310689002275,0.007036535535007715,0.03524736315011978
1706235646942443282,0.08284123986959459,9.761236190795898,-1.0511620044708252,0.0008927778690122068,0.006874644663184881,0.035472266376018524
1706235646950310949,0.08483812212944031,9.757226943969727,-1.0504331588745117,0.0021645936649292707,0.006453270558267832,0.03615215793251991
1706235646962554430,0.08137961477041246,9.761581420898438,-1.0517250299453738,0.0019742862787097692,0.0057633561082184315,0.03686114028096199
1706235646970625245,0.08164507895708085,9.75820827484131,-1.0568668842315674,0.0002603266038931906,0.0047396463342010975,0.037133295089006424
1706235646981051245,0.08247119933366777,9.765970230102539,-1.0544778108596804,-0.0024887286126613617,0.0034895744174718857,0.036676228046417236
1706235646991803190,0.07860711961984636,9.76361083984375,-1.0479465723037722,-0.005527712404727936,0.0023531452752649784,0.03549112752079964
1706235647001722542,0.08966080099344255,9.757211685180664,-1.0526922941207888,-0.008148225955665112,0.001706808223389089,0.0339616984128952
1706235647010245060,0.08200017362833024,9.755514144897461,-1.053426742553711,-0.009821844287216663,0.0016119439387694001,0.032662175595760345
1706235647023115764,0.08707396686077118,9.761593818664553,-1.0578638315200808,-0.01028763223439455,0.0017217216081917286,0.03192239627242088
1706235647030615967,0.09442178159952165,9.762237548828125,-1.0541198253631592,-0.009606634266674519,0.0016690513584762812,0.03163670003414154
1706235647040523264,0.08981440961360931,9.762604713439943,-1.056159853935242,-0.00801731739193201,0.0014378306223079562,0.03148449584841728
1706235647050786171,0.09159103035926819,9.767333030700685,-1.0569001436233523,-0.005811579525470734,0.001303044962696731,0.031224504113197327
1706235647059901153,0.09450792521238328,9.761920928955078,-1.059714198112488,-0.0033759460784494877,0.001560106175020337,0.03076188452541828
1706235647070941042,0.09118091315031053,9.764989852905273,-1.0628131628036501,-0.0011219404404982924,0.0023045402485877275,0.03004833497107029
1706235647080811227,0.08429893851280212,9.767642974853516,-1.0540076494216921,0.0006105241482146084,0.003383200615644455,0.029059486463665962
1706235647090976245,0.09234503656625749,9.758233070373537,-1.0649737119674685,0.0015299152582883835,0.0045258644968271255,0.027897784486413002
1706235647099859097,0.08478689193725586,9.762260437011719,-1.0640767812728884,0.0014898247318342328,0.005422127433121204,0.02674165368080139
1706235647110895430,0.08601852506399156,9.762949943542482,-1.0676751136779785,0.0006163225625641644,0.005774525459855795,0.025618642568588257
1706235647122274041,0.07546408474445343,9.758570671081545,-1.0668234825134277,-0.0008395230397582054,0.005478573031723499,0.02438451535999775
1706235647131052967,0.09553622454404832,9.758199691772461,-1.0605015754699707,-0.0026606740429997444,0.004658990539610386,0.022964388132095337
1706235647140100560,0.08207547664642334,9.756848335266115,-1.060073256492615,-0.00451664999127388,0.003497825935482979,0.021570980548858643
1706235647150011875,0.07669711858034135,9.752119064331055,-1.0579968690872195,-0.0059744673781096935,0.002123958198353648,0.020664623007178307
1706235647160432097,0.0831788554787636,9.752133369445803,-1.0715836286544802,-0.006907717790454626,0.0005879565142095089,0.020587846636772156
1706235647171078134,0.08413521945476532,9.748085975646974,-1.0705316066741943,-0.0075507936999201775,-0.0011275836732238531,0.021141499280929565
1706235647179915097,0.08104779571294786,9.763947486877443,-1.0695160627365115,-0.008082321844995022,-0.0029686312191188335,0.02161029540002346
1706235647191137616,0.06983114778995514,9.757183074951172,-1.0646777153015137,-0.00855169352144003,-0.0045900545082986355,0.021350041031837463
1706235647200148782,0.06800471246242523,9.757193565368654,-1.0734599828720095,-0.009202188812196255,-0.005442772526293993,0.020282035693526268
1706235647211891745,0.0758400931954384,9.75485610961914,-1.0846102237701416,-0.01047459989786148,-0.0052518947049975395,0.01868574135005474
1706235647221482338,0.08044062554836273,9.756202697753906,-1.0778573751449587,-0.012490605935454369,-0.00428383145481348,0.01667379029095173
1706235647230193078,0.07174110412597656,9.75481700897217,-1.0770416259765625,-0.014737063087522984,-0.0031079857144504786,0.014187995344400406
1706235647240448393,0.07832375913858415,9.76090717315674,-1.079003691673279,-0.016475701704621315,-0.0022042321506887674,0.011414268985390663
1706235647251784690,0.07184740155935289,9.75047016143799,-1.0667505264282227,-0.01731439121067524,-0.0017566831083968282,0.008892552927136421
1706235647259975060,0.09119343757629395,9.753838539123537,-1.0704758167266846,-0.017256781458854675,-0.0017578706610947847,0.007301008328795433
1706235647271303949,0.08248044550418854,9.764960289001467,-1.058242201805115,-0.01636340655386448,-0.00213609472848475,0.00721336156129837
1706235647280161708,0.09296610951423645,9.75517463684082,-1.0685907602310183,-0.014589386060833931,-0.0026339974720031023,0.008853978477418423
1706235647290288782,0.09951584786176683,9.751823425292969,-1.0748962163925173,-0.011911346577107906,-0.0028921172488480806,0.011849445290863514
1706235647299897375,0.0934942737221718,9.757871627807617,-1.0805157423019411,-0.008413286879658699,-0.002838147571310401,0.01512642577290535
1706235647310646856,0.09760329127311707,9.747428894042969,-1.0745773315429688,-0.004364422522485256,-0.002733080880716443,0.017303530126810074
1706235647322868301,0.08947888016700745,9.753174781799318,-1.0870267152786257,-0.0003302564437035471,-0.002898546401411295,0.01745137944817543
1706235647330773523,0.090947225689888,9.756885528564453,-1.0850591659545898,0.0029318411834537983,-0.0035014029126614332,0.015461026690900326
1706235647339997041,0.09363105893135071,9.761312484741211,-1.0932792425155642,0.004797499161213636,-0.004359349142760038,0.01181025430560112
1706235647350793875,0.0802772417664528,9.749462127685547,-1.0818593502044678,0.005058679264038801,-0.004995288327336311,0.007255170494318008
1706235647361959115,0.08619995415210724,9.756569862365724,-1.0854923725128174,0.003882645396515727,-0.0050886040553450584,0.0027256407774984837
1706235647370703819,0.08432928472757341,9.754866600036623,-1.0821830034255984,0.001625647651962936,-0.004740789998322725,-0.0008168340427801013
1706235647380093134,0.07905466109514238,9.754523277282717,-1.0788148641586306,-0.00120999023783952,-0.004246759228408337,-0.0026938377413898706
1706235647390321152,0.07880301773548126,9.750844955444336,-1.0887259244918825,-0.004102945793420076,-0.0038539215456694365,-0.002769824815914035
1706235647400277764,0.07024092227220537,9.760932922363281,-1.0801028013229372,-0.0067625888623297215,-0.003712786827236414,-0.001499724225141108
1706235647410048930,0.08054716885089874,9.75961685180664,-1.0877645015716553,-0.009171716868877411,-0.0037645171396434307,0.0002933219657279551
1706235647421298726,0.07098879665136339,9.751483917236328,-1.0875999927520752,-0.011370924301445484,-0.003737199818715453,0.0018020811257883906
1706235647430527875,0.08721451461315155,9.754865646362305,-1.0839481353759766,-0.01324452180415392,-0.0034793270751833916,0.0024993927218019962
1706235647440749912,0.07267716526985168,9.7545166015625,-1.0913808345794678,-0.01451367512345314,-0.003161080414429307,0.002246628748252988
1706235647450504208,0.061999972909688957,9.755192756652834,-1.077979564666748,-0.01505057793110609,-0.0030340806115418673,0.0012825260637328029
1706235647463203652,0.0758550614118576,9.765344619750977,-1.0949486494064333,-0.01524290069937706,-0.003124779090285301,6.85469203745015e-05
1706235647470744801,0.06800379604101182,9.75355625152588,-1.0916109085083008,-0.01572551019489765,-0.0031780574936419725,-0.0010235693771392107
1706235647480650319,0.06707372516393663,9.753213882446289,-1.0895782709121706,-0.016783587634563446,-0.002944033360108733,-0.0019658831879496574
1706235647496342430,0.06771648675203325,9.756243705749513,-1.090642333030701,-0.018302446231245995,-0.002519728150218725,-0.0029033536557108164
1706235647500256541,0.05937197804450989,9.755892753601076,-1.0920591354370117,-0.020065423101186752,-0.0022267005406320095,-0.0038545276038348675
1706235647510270189,0.07840197533369066,9.746478080749513,-1.09226930141449,-0.021860120818018913,-0.0022853738628327847,-0.00473206490278244
1706235647522525689,0.07851289957761766,9.75520992279053,-1.0780107975006104,-0.023302659392356873,-0.002791709965094924,-0.00540954852476716
1706235647530428152,0.0644601657986641,9.751855850219727,-1.0854902267456055,-0.023815348744392395,-0.003738523693755269,-0.005611240863800049
1706235647546227578,0.07536094635725023,9.755943298339844,-1.0886913537979128,-0.023143025115132332,-0.004902768414467573,-0.005026680883020163
1706235647560794189,0.07054270058870317,9.763337135314943,-1.0803924798965456,-0.021674402058124542,-0.0058530233800411224,-0.0036890306510031223
1706235647570837004,0.06893480569124223,9.759620666503906,-1.082104206085205,-0.01855487748980522,-0.00544513575732708,-0.00033478724071756005
1706235647580222171,0.06519746780395508,9.76568603515625,-1.0786761045455935,-0.01747916080057621,-0.003994236700236797,0.0010335278930142522
1706235647591241893,0.07900450378656389,9.754250526428224,-1.0857213735580447,-0.01702435128390789,-0.002136318711563945,0.002059450838714838
1706235647602359837,0.07431148737668992,9.756583213806154,-1.0821928977966309,-0.017240073531866074,-0.0003245208354201168,0.0027652932330965996
1706235647610369967,0.08193968981504442,9.756915092468263,-1.080919146537781,-0.017725957557559013,0.0009277700446546078,0.003147964831441641
1706235647624131615,0.0889788642525673,9.754230499267578,-1.0815401077270508,-0.01780625618994236,0.0012597839813679457,0.003251313464716077
1706235647633490560,0.0880185067653656,9.762332916259766,-1.0798261165618896,-0.016856875270605087,0.0006981496699154377,0.0032301496248692274
1706235647642286467,0.0675131231546402,9.76064968109131,-1.0925419330596924,-0.014682650566101074,-0.00033148820511996746,0.0032075427006930113
1706235647649918689,0.07205329835414886,9.758276939392092,-1.0745787620544434,-0.011950258165597916,-0.0012157034361734986,0.003125295741483569
1706235647661578282,0.07347080111503601,9.75795078277588,-1.0782328844070437,-0.009974292479455471,-0.0015355220530182123,0.0029320563189685345
1706235647671948708,0.09584877640008928,9.762686729431154,-1.0824352502822878,-0.00963335670530796,-0.0012734780320897698,0.002836676547303796
1706235647682041226,0.08754086494445801,9.758602142333984,-1.0768887996673584,-0.010502035729587078,-0.0006437863339670002,0.0031005064956843853
1706235647691680708,0.07718669623136522,9.757265090942383,-1.0742368698120117,-0.011290575377643108,0.00010436568118166178,0.003772301133722067
1706235647700367893,0.08730862289667131,9.7535400390625,-1.071738123893738,-0.011112385429441929,0.000684131111484021,0.004814297426491976
1706235647710814949,0.08957522362470628,9.744103431701662,-1.0733649730682373,-0.009991350583732128,0.00072960474062711,0.006228812504559755
1706235647721032745,0.07503579556941986,9.762644767761232,-1.0696191787719727,-0.0083895493298769,-7.914144225651398e-05,0.007965379394590855
1706235647730363782,0.07148298621177673,9.76130485534668,-1.0756777524948122,-0.00693916529417038,-0.0016295829555019736,0.009837078861892223
1706235647740070578,0.07639776915311815,9.766351699829102,-1.0662813186645508,-0.006433219648897648,-0.0031575048342347145,0.011567795649170876
1706235647790820393,0.08670780062675476,9.763324737548828,-1.0656147003173828,-0.014799615368247032,0.0007697258261032403,0.014883610419929028
1706235647850470837,0.09541979432106018,9.768383026123047,-1.0633466243743896,-0.009517044760286808,0.003767777932807803,0.019036991521716118
1706235647861176726,0.09040033072233201,9.766022682189943,-1.0622738599777224,-0.007969539612531662,0.004166790284216404,0.020492982119321823
1706235647870063337,0.09148849546909332,9.760290145874023,-1.0564104318618777,-0.005846842657774687,0.0047967443242669106,0.02202320471405983
1706235647880102134,0.09134722501039506,9.768416404724123,-1.0647056102752686,-0.0033836127258837223,0.005485803820192814,0.023398684337735176
1706235647890515837,0.09621864557266235,9.756938934326172,-1.063794255256653,-0.0010484404629096389,0.005985280033200979,0.024412019178271294
1706235647900479393,0.09661030769348145,9.766349792480469,-1.0576465129852295,0.0008222474716603756,0.006101073697209358,0.02489679865539074
1706235647910727152,0.08985834568738939,9.767685890197756,-1.050218105316162,0.0021699555218219757,0.005813335534185171,0.024913642555475235
1706235647926737893,0.07758935540914537,9.756213188171388,-1.0541810989379883,0.002951059490442276,0.00532181654125452,0.024922525510191917
1706235647933861782,0.08098945021629333,9.762968063354492,-1.0609285831451416,0.0028339624404907227,0.004827613942325115,0.02545502781867981
1706235647941144874,0.08070243895053864,9.761322021484375,-1.0704915523529053,0.0014005694538354874,0.0043303039856255054,0.02650512009859085
1706235647950876671,0.08178582042455675,9.764649391174318,-1.0545635223388672,-0.0013248673640191555,0.0037958964239805937,0.027423687279224396
1706235647960133634,0.09565632790327074,9.766687393188477,-1.0548946857452393,-0.0046498943120241165,0.003352661384269595,0.027609921991825104
1706235647977569856,0.07440765947103502,9.759251594543459,-1.060577988624573,-0.007504389621317387,0.003207723144441843,0.027143526822328568
1706235647987445189,0.08133732527494432,9.772077560424805,-1.0562149286270144,-0.009135509841144085,0.0034531415440142155,0.026542484760284424
1706235648001093171,0.08143117278814317,9.752504348754883,-1.0582474470138552,-0.009052611887454987,0.004379470366984606,0.026700478047132492
1706235648011662893,0.08315799385309221,9.760936737060547,-1.0552858114242556,-0.007995481602847576,0.004056535195559263,0.027938567101955414
1706235648020172059,0.07308200746774675,9.755524635314943,-1.0627679824829102,-0.0068333325907588005,0.002724305260926485,0.029575645923614502
1706235648038657263,0.07672193646430969,9.763961791992188,-1.0604563951492312,-0.006254806183278561,0.0007866816013120115,0.030812209472060204
1706235648046510263,0.07841505110263824,9.752835273742678,-1.056929349899292,-0.00679158978164196,-0.0010031037963926792,0.031009366735816002
1706235648051861319,0.07468966394662858,9.765316009521484,-1.057631492614746,-0.008440663106739521,-0.00207896763458848,0.03011120855808258
1706235648061098615,0.07576163113117218,9.76124668121338,-1.0499613285064697,-0.010709742084145546,-0.002244760515168309,0.028658254072070122
1706235648070349578,0.07944580912590027,9.763951301574709,-1.0526803731918337,-0.012964091263711452,-0.0015508465003222227,0.027463804930448532
1706235648080732263,0.07122524827718736,9.746068954467773,-1.0583590269088747,-0.01469507347792387,-0.0002869745367206633,0.027157079428434372
1706235648092059300,0.06666676700115204,9.758564949035646,-1.0472871065139773,-0.015735508874058723,0.0009039906435646117,0.02783990278840065
1706235648102244615,0.07377536594867706,9.765330314636232,-1.0557411909103396,-0.016363123431801796,0.0013530416181311011,0.02917315997183323
1706235648110561133,0.07698775827884674,9.76735019683838,-1.0606000423431396,-0.01696603372693062,0.0010341047309339046,0.030663814395666122
1706235648123604078,0.07223825901746751,9.770716667175295,-1.0545181035995486,-0.017598090693354607,0.0006644464447163045,0.03176555037498474
1706235648150281559,0.08210885524749756,9.769044876098633,-1.0606023073196413,-0.018030256032943726,0.003964922856539488,0.0300644189119339
1706235648160958041,0.08901745080947876,9.774769783020021,-1.0556716918945312,-0.017993010580539703,0.0056005544029176235,0.02886509709060192
1706235648170754967,0.07561474293470384,9.756205558776857,-1.0565665960311892,-0.017676789313554764,0.0070401327684521675,0.028148947283625603
1706235648180923782,0.07085873186588287,9.763946533203125,-1.051645040512085,-0.01664707437157631,0.00814093928784132,0.027981970459222794
1706235648190254226,0.07877356559038164,9.760231018066406,-1.0609722137451172,-0.015108151361346245,0.008544066920876503,0.02826252207159996
1706235648200459670,0.09232233464717865,9.756519317626953,-1.0531955957412722,-0.013662752695381641,0.007967660203576088,0.02878960780799389
1706235648210964337,0.08205357193946838,9.757540702819826,-1.057861328125,-0.012487578205764294,0.006445832084864378,0.02929566614329815
1706235648231135189,0.07361357659101488,9.759221076965334,-1.044816851615906,-0.010178888216614723,0.0018700184300541878,0.029721714556217194
1706235648240309096,0.07605531811714172,9.764608383178711,-1.0589847564697266,-0.009534139186143875,-0.00020734581630676985,0.0299184899777174
1706235648250383948,0.07879843562841417,9.756532669067383,-1.0560539960861208,-0.009821990504860878,-0.0014725582441315055,0.030382687225937843
