Timestamp,IMU_Raw_x,IMU_Raw_y,IMU_Raw_z,IMU_Linear_Acc_X,IMU_Linear_Acc_Y,IMU_Linear_Acc_Z
1706236771615591482,0.15113607048988342,9.756767272949219,-1.0840120315551758,-0.10620813816785812,0.057308901101350784,0.05942806974053383
1706236771629000908,0.17747516930103305,9.744809150695803,-1.0204290151596072,-0.11012868583202362,0.06207096576690674,0.06100618094205856
1706236771634988001,0.16933301091194153,9.743836402893068,-1.037365198135376,-0.11339773237705231,0.0685821920633316,0.054989688098430634
1706236771645032371,0.1850668638944626,9.76479244232178,-1.0566577911376953,-0.1156061589717865,0.0750541090965271,0.043983228504657745
1706236771659982149,0.19447974860668185,9.755958557128906,-1.0177268981933594,-0.11610280722379684,0.08039284497499466,0.03238725662231445
1706236771668056908,0.16570249199867249,9.729981422424318,-1.0456492900848389,-0.1144142672419548,0.08427629619836807,0.023776210844516754
1706236771675174593,0.17486464977264404,9.709415435791016,-1.0564786195755007,-0.11095494031906128,0.08627352863550186,0.01980622671544552
1706236771686490501,0.18682679533958435,9.770484924316406,-1.007284760475159,-0.10711617767810822,0.08551407605409622,0.02003597281873226
1706236771694913167,0.17160335183143616,9.745565414428711,-1.039773941040039,-0.10423843562602997,0.08210735768079758,0.022986020892858505
1706236771705287093,0.16089275479316711,9.726655960083008,-1.0431702136993408,-0.10293161123991013,0.07784464955329895,0.027308041229844093
1706236771715030334,0.1442457884550095,9.762115478515625,-1.0441449880599978,-0.10354635864496231,0.07461608946323395,0.031595341861248016
1706236771725034482,0.14379869401454928,9.780031204223633,-1.070068359375,-0.1065807193517685,0.07341628521680832,0.03418949991464615
1706236771734639242,0.14527639746665955,9.765848159790039,-1.079090476036072,-0.11227262020111084,0.07500540465116501,0.03362686559557915
1706236771744949871,0.1453524082899094,9.779995918273928,-1.0745195150375368,-0.11998838931322098,0.0798470601439476,0.029065025970339775
1706236771755180630,0.14775009453296664,9.770208358764648,-1.0749351978302002,-0.1282181590795517,0.08731383830308914,0.02081032656133175
1706236771765165204,0.15017759799957275,9.771217346191406,-1.0739073753356934,-0.1352124661207199,0.09574200958013535,0.010557349771261215
1706236771775272464,0.16324000060558322,9.771875381469727,-1.057443618774414,-0.13962511718273163,0.10318709909915924,0.000790191232226789
1706236771785350612,0.16446104645729065,9.746545791625977,-1.060747027397156,-0.14075520634651184,0.10809245705604553,-0.006133547984063625
1706236771794999538,0.17524223029613498,9.730720520019531,-1.0632734298706055,-0.13854463398456573,0.10940386354923248,-0.00878659076988697
1706236771804795797,0.1832931637763977,9.759417533874513,-1.0491911172866824,-0.13348889350891113,0.10655055940151215,-0.007185214199125767
1706236771814451482,0.17306053638458252,9.768899917602539,-1.0477882623672488,-0.12648487091064453,0.10018930584192276,-0.002502614166587591
1706236771824610964,0.16127192974090576,9.747303009033203,-1.065124273300171,-0.11885186284780502,0.09266456216573715,0.003672969061881304
1706236771838733686,0.16123221814632419,9.766555786132812,-1.074829936027527,-0.11237116158008575,0.08672746270895004,0.00957546103745699
1706236771844583371,0.15433166921138766,9.781045913696289,-1.0704969167709353,-0.10877212882041931,0.08403497189283371,0.013336586765944958
1706236771854646853,0.14803223311901095,9.777019500732422,-1.0913928747177126,-0.1089441105723381,0.08509581536054611,0.01360016968101263
1706236771864493723,0.1315976083278656,9.762495994567873,-1.0913879871368408,-0.11273330450057983,0.08952721953392029,0.01004078984260559
1706236771878485686,0.13798685371875766,9.771568298339844,-1.0818941593170166,-0.11933444440364838,0.09586497396230698,0.003335420275107026
1706236771887476575,0.14015121757984164,9.762470245361328,-1.0828042030334473,-0.12756042182445526,0.10195450484752655,-0.004946817643940449
1706236771895442593,0.1566385477781296,9.78744888305664,-1.0733301639556885,-0.1357823610305786,0.10610094666481018,-0.012656647711992264
1706236771905499149,0.1522236913442612,9.775620460510256,-1.0608066320419314,-0.14207805693149567,0.10795535892248154,-0.017765024676918983
1706236771914899871,0.15048909187316895,9.752326011657717,-1.0581886768341064,-0.1449527144432068,0.10824004560709,-0.018950695171952248
1706236771925418945,0.15631319582462314,9.768214225769045,-1.0473912954330447,-0.14413070678710938,0.10757844150066376,-0.015875253826379776
1706236771935301056,0.1572122871875763,9.77394771575928,-1.0535711050033572,-0.14056938886642456,0.10608307272195816,-0.009245585650205612
1706236771944974945,0.16047453880310059,9.767230033874513,-1.067310929298401,-0.13573811948299408,0.1040550246834755,-0.0007083776290528476
1706236771954575630,0.15800705552101135,9.766894340515138,-1.074812889099121,-0.13094453513622284,0.1021876260638237,0.0073861791752278805
1706236771964374778,0.15937986969947815,9.76521110534668,-1.069270133972168,-0.12706470489501953,0.10098077356815338,0.012644237838685513
1706236771977817001,0.15846490859985352,9.769955635070803,-1.0841243267059326,-0.12451770901679993,0.10046227276325226,0.01365739107131958
1706236771985327501,0.13991278409957886,9.779394149780273,-1.0796173810958865,-0.12340939790010452,0.10048633068799973,0.010512817651033401
1706236771995175315,0.12746992707252502,9.765198707580568,-1.068732738494873,-0.12391319125890732,0.10103712230920792,0.004526306409388781
1706236772009128371,0.1337594985961914,9.773640632629396,-1.0711684226989746,-0.126470148563385,0.1020892858505249,-0.0022301727440208197
1706236772015010315,0.13033275306224826,9.782384872436523,-1.0686851739883425,-0.13128919899463654,0.1034296303987503,-0.00759798102080822
1706236772024671352,0.13356865942478183,9.77529811859131,-1.0461788177490234,-0.13772837817668915,0.10489779710769653,-0.01008941326290369
1706236772034815927,0.1335268467664719,9.763819694519045,-1.050631046295166,-0.14441272616386414,0.10643697530031204,-0.00908569898456335
1706236772044759667,0.1295078694820404,9.75943374633789,-1.0475201606750488,-0.14991694688796997,0.10766489058732986,-0.004720725119113922
1706236772054552871,0.1385638415813446,9.768901824951172,-1.0467430353164675,-0.15336905419826508,0.10784430056810379,0.002058945130556822
1706236772065221704,0.13676948845386508,9.768256187438967,-1.0577102899551394,-0.15459081530570984,0.1065731793642044,0.00962318480014801
1706236772074759389,0.1439795643091202,9.759126663208008,-1.0603723526000977,-0.15386570990085602,0.10423028469085693,0.016110748052597046
1706236772084814241,0.13133932650089267,9.760488510131836,-1.060126781463623,-0.15174826979637146,0.10155249387025833,0.01997428759932518
1706236772094581241,0.14078171551227572,9.767569541931154,-1.0715253353118896,-0.14903117716312408,0.0990840494632721,0.02048902027308941
1706236772106030704,0.1504343003034592,9.782390594482422,-1.0616374015808105,-0.14650563895702362,0.09726689010858536,0.01792389526963234
1706236772115186593,0.1462785452604294,9.77261257171631,-1.0526710748672488,-0.14448098838329315,0.09671394526958466,0.013409837149083614
1706236772124895575,0.141147643327713,9.770253181457521,-1.0495153665542605,-0.14276300370693207,0.09787915647029877,0.008724002167582512
1706236772135028964,0.13386990129947665,9.761117935180664,-1.041490077972412,-0.14124543964862823,0.10041321069002151,0.005759505555033684
1706236772146517723,0.13367903232574463,9.764185905456545,-1.0421652793884277,-0.14028628170490265,0.10313176363706589,0.005761577747762203
1706236772155117241,0.12708218395709994,9.758412361145021,-1.0321654081344607,-0.14045794308185577,0.10471637547016144,0.00890181865543127
1706236772165073519,0.1287667155265808,9.761144638061523,-1.046243667602539,-0.1420954465866089,0.10443757474422455,0.014364942908287048
1706236772175761945,0.13097514212131503,9.754393577575685,-1.0463064908981325,-0.14503763616085052,0.10237069427967072,0.02064424380660057
1706236772185218501,0.11373116821050645,9.767901420593263,-1.0494300127029421,-0.14870087802410126,0.09919751435518265,0.025958960875868797
1706236772194976741,0.11655822396278381,9.774983406066896,-1.0553100109100342,-0.15252213180065155,0.09599469602108002,0.028881482779979706
1706236772206156982,0.10442218929529191,9.755739212036133,-1.0477463006973269,-0.15634854137897491,0.09393838047981262,0.0288706012070179
1706236772215234000,0.12629164755344394,9.765544891357422,-1.0529619455337527,-0.16025406122207642,0.09362687170505524,0.026400789618492126
1706236772224917741,0.13112401962280273,9.77091693878174,-1.0437097549438477,-0.16393232345581055,0.0947236567735672,0.022694522514939308
1706236772234991093,0.11952382326126099,9.767189979553224,-1.0491926670074463,-0.16648046672344208,0.09650707244873047,0.0191872026771307
1706236772246187538,0.1394639015197754,9.766175270080568,-1.0364090204238894,-0.16703316569328308,0.09842680394649506,0.017009561881422997
1706236772254785352,0.1365816295146942,9.753026008605959,-1.0328973531723025,-0.16536013782024384,0.10002399235963821,0.016777731478214264
1706236772264944371,0.13393355906009677,9.75638198852539,-1.0319361686706543,-0.16180682182312012,0.10072879493236542,0.018644144758582115
1706236772275703889,0.13727448880672458,9.7587366104126,-1.0289999246597292,-0.1571536511182785,0.1000513881444931,0.02231820672750473
1706236772284565278,0.1358386427164078,9.76247310638428,-1.0380010604858398,-0.15246067941188812,0.09804210811853409,0.027039123699069023
1706236772295441945,0.12878844141960144,9.75741481781006,-1.038536548614502,-0.14870397746562958,0.0954098328948021,0.03167974576354027
1706236772304931315,0.12388632446527482,9.765533447265625,-1.0441435575485232,-0.14656972885131836,0.09308692067861557,0.03504015877842903
1706236772314605667,0.11112907528877258,9.775970458984375,-1.0452625751495361,-0.14649978280067444,0.09182567894458771,0.0362662672996521
1706236772325376408,0.1140998899936676,9.762826919555664,-1.0427303314208984,-0.14870670437812805,0.09210608154535294,0.035179853439331055
1706236772335345426,0.11251524835824968,9.769895553588867,-1.042236566543579,-0.15299907326698303,0.09394718706607819,0.03235100954771042
1706236772344819741,0.11076006293296814,9.773266792297365,-1.039485216140747,-0.15861216187477112,0.09677872806787491,0.028872890397906303
1706236772355074223,0.11058128625154497,9.77766227722168,-1.0465900897979736,-0.16440542042255402,0.09984744340181351,0.025878384709358215
1706236772365212241,0.11447425931692125,9.767510414123537,-1.0373449325561523,-0.16930922865867615,0.10266230255365372,0.024060159921646118
1706236772375673723,0.1189907416701317,9.759737968444826,-1.0265475511550906,-0.17258872091770172,0.10486549139022827,0.023623231798410416
1706236772384705482,0.1287442892789841,9.75367546081543,-1.02247953414917,-0.17383535206317902,0.10590632259845734,0.02466057427227497
1706236772396336241,0.13424418866634372,9.75434970855713,-1.021803855895996,-0.17286716401576996,0.10515473783016205,0.0273115374147892
1706236772406455260,0.12519675493240356,9.760428428649904,-1.0298194885253906,-0.16977748274803162,0.10242942720651627,0.0314176008105278
1706236772415393945,0.12654632329940796,9.765486717224123,-1.022740125656128,-0.16519592702388763,0.09840258210897446,0.03621821850538254
1706236772425087093,0.1273365616798401,9.749303817749023,-1.0318396091461182,-0.16031354665756226,0.09435879439115524,0.04058682173490524
1706236772435178426,0.12214516848325731,9.757720947265625,-1.0247957706451416,-0.15638794004917145,0.09135690331459045,0.04357537627220154
1706236772447053204,0.12048766762018205,9.761765480041506,-1.0258105993270876,-0.15423378348350525,0.08970530331134796,0.04480714350938797
1706236772454591704,0.12294449657201768,9.767174720764162,-1.0302114486694336,-0.1540711671113968,0.08928775787353516,0.04453984647989273
1706236772465506630,0.12571322917938232,9.762117385864258,-1.0394287109375,-0.1555287390947342,0.08999332040548325,0.04332280158996582
1706236772474684593,0.11736416816711426,9.760390281677248,-1.017185926437378,-0.15779522061347961,0.09162125736474991,0.04161306843161583
1706236772484454648,0.12219423800706865,9.767813682556154,-1.0309133529663086,-0.16004325449466705,0.09369511157274246,0.03987172618508339
1706236772496311204,0.11733077466487885,9.760383605957031,-1.0145113468170166,-0.16179977357387543,0.09565040469169617,0.038727372884750366
1706236772505384556,0.11071058362722398,9.761038780212404,-1.019069314002991,-0.16301091015338898,0.09708626568317413,0.03875203803181648
1706236772514729278,0.12028716504573822,9.764780044555664,-1.021301031112671,-0.16393181681632996,0.09779676049947739,0.04016080126166344
1706236772524450074,0.11254239082336426,9.759057044982912,-1.0210886001586914,-0.16485737264156342,0.0977872759103775,0.04263749346137047
1706236772534519019,0.12291532754898071,9.75736713409424,-1.0269856452941895,-0.16584117710590363,0.09723521023988724,0.04538886249065399
1706236772546813037,0.13067689538002014,9.761765480041506,-1.023248076438904,-0.16660858690738678,0.09632761031389236,0.047503694891929626
1706236772555155352,0.12937121093273166,9.76750373840332,-1.032409429550171,-0.16661356389522552,0.095282644033432,0.0483468696475029
1706236772565559130,0.1178935170173645,9.777956008911133,-1.0265713930130007,-0.16540683805942535,0.09455453604459763,0.047735556960105896
1706236772575379723,0.12624724209308627,9.758380889892578,-1.0284254550933838,-0.1631801575422287,0.09474363178014755,0.04593304917216301
1706236772585199019,0.12268374860286713,9.75904178619385,-1.0281493663787842,-0.16073375940322876,0.09600446373224258,0.04354532063007355
1706236772594885019,0.12158221751451494,9.764791488647461,-1.0314364433288574,-0.1588759571313858,0.09768559038639069,0.04126009717583656
1706236772605084704,0.11727066338062286,9.761397361755373,-1.027785658836365,-0.15805189311504364,0.09887374937534332,0.039538461714982986
1706236772615347204,0.11416516453027727,9.768503189086914,-1.0221705436706543,-0.15839380025863647,0.09914685785770416,0.03856528177857399
1706236772625040871,0.1167394444346428,9.765115737915039,-1.023658633232117,-0.15982069075107574,0.09871804714202881,0.03842518478631973
1706236772635234574,0.10579703748226166,9.759694099426271,-1.0224218368530273,-0.16207101941108704,0.09808451682329178,0.039151981472969055
1706236772645907519,0.11488387733697893,9.757016181945803,-1.0185333490371706,-0.16478998959064484,0.09754616767168045,0.04062005504965782
1706236772654424111,0.11963094770908356,9.772893905639648,-1.03210723400116,-0.1675499677658081,0.09707000851631165,0.042495209723711014
1706236772668342815,0.11880064755678178,9.775911331176758,-1.0380609035491943,-0.16975221037864685,0.09672212600708008,0.044172659516334534
1706236772675172519,0.12325645983219147,9.755688667297365,-1.038867473602295,-0.17076440155506134,0.09689301252365112,0.044789768755435944
1706236772684833482,0.11615687608718872,9.76242446899414,-1.0362310409545898,-0.1703050434589386,0.09772469103336334,0.043654631823301315
1706236772695387185,0.13048577308654785,9.773224830627443,-1.042478919029236,-0.16861188411712646,0.09875379502773285,0.040771711617708206
1706236772704578926,0.11718153208494188,9.775245666503906,-1.0376232862472536,-0.16622893512248993,0.09955065697431564,0.03683871030807495
1706236772725027908,0.12742923200130465,9.760054588317873,-1.0329653024673464,-0.16373437643051147,0.10021337866783142,0.0328599289059639
1706236772727767241,0.12291674315929413,9.756338119506836,-1.0319221019744873,-0.16160480678081512,0.10085761547088623,0.029832886531949043
1706236772735192408,0.12128212302923204,9.754980087280273,-1.039922118186951,-0.1601211428642273,0.1010713279247284,0.028439249843358994
1706236772747129926,0.12030752748250963,9.765784263610842,-1.0278708934783936,-0.15938228368759155,0.10027153789997101,0.028729498386383057
1706236772755862111,0.1137848123908043,9.766468048095703,-1.0399824380874636,-0.15942136943340302,0.09846464544534683,0.03018029034137726
1706236772765120704,0.10637657344341278,9.77322292327881,-1.0381838083267214,-0.16030113399028778,0.09645295143127441,0.032018162310123444
1706236772775906037,0.10937678068876268,9.766817092895508,-1.0419414043426514,-0.16213802993297577,0.09530498087406158,0.03344311937689781
1706236772785495759,0.11492227017879486,9.768163681030273,-1.0471267700195312,-0.16489486396312714,0.0956278070807457,0.033821430057287216
1706236772795685611,0.11767541617155076,9.772898674011232,-1.0443365573883057,-0.1680644452571869,0.09726309776306152,0.0328679084777832
1706236772804517222,0.11069642007350922,9.759735107421875,-1.0456314086914062,-0.17076590657234192,0.09953296929597855,0.030725251883268356
1706236772814971463,0.10724790394306183,9.765139579772951,-1.0482909679412842,-0.1723461002111435,0.1015871986746788,0.027911387383937836
1706236772825478630,0.115411214530468,9.759400367736818,-1.0487358570098877,-0.17281484603881836,0.10265988111495972,0.025063319131731987
1706236772835514574,0.11920709908008575,9.770554542541506,-1.0462274551391602,-0.17256958782672882,0.10240402072668076,0.022659925743937492
1706236772844889796,0.12090365588665009,9.759033203125,-1.0429080724716189,-0.17184661328792572,0.10109110176563263,0.020983228459954262
1706236772855245185,0.11792717128992082,9.766476631164553,-1.038583517074585,-0.17063018679618835,0.09937033802270889,0.020231308415532112
1706236772865778833,0.11753547191619873,9.751264572143555,-1.0357528924942019,-0.16897188127040863,0.09778451919555664,0.02056782878935337
1706236772877301667,0.12262117862701416,9.756031990051271,-1.046677827835083,-0.16715888679027557,0.0964483693242073,0.021990396082401276
1706236772884622667,0.11911460012197496,9.754335403442383,-1.049448370933533,-0.1655322164297104,0.09511462599039078,0.024060850962996483
1706236772895025389,0.10592135041952135,9.769549369812013,-1.047391414642334,-0.1643580049276352,0.09361708909273148,0.025886541232466698
1706236772904953982,0.10866224765777588,9.761099815368654,-1.0502690076828005,-0.16398505866527557,0.09226520359516144,0.026607252657413483
1706236772918688426,0.11166986078023912,9.765148162841797,-1.051344394683838,-0.1648002564907074,0.09165800362825394,0.025900090113282204
1706236772925478037,0.1105324923992157,9.760747909545898,-1.051767945289612,-0.1668008267879486,0.09211573749780655,0.024014513939619064
1706236772934798352,0.12073329091072083,9.767840385437013,-1.0504094362258913,-0.16937804222106934,0.09343702346086502,0.021522637456655502
1706236772951698907,0.1147003173828125,9.766852378845217,-1.053595781326294,-0.17157898843288422,0.09516366571187973,0.019064389169216156
1706236772955340556,0.12295699864625932,9.760074615478516,-1.0470792055130007,-0.17257650196552277,0.09688220173120499,0.01714547723531723
1706236772965381759,0.11752036958932878,9.75941276550293,-1.0493513345718386,-0.17204050719738007,0.09821967035531998,0.01605890691280365
1706236772980070222,0.11352675408124925,9.754329681396484,-1.035810947418213,-0.17025300860404968,0.09876725822687149,0.015954067930579185
1706236772984704352,0.11441104859113695,9.762784957885742,-1.0462015867233279,-0.1679973304271698,0.09824681282043457,0.016912559047341347
1706236772995818574,0.13207875192165378,9.748621940612795,-1.04728901386261,-0.1661148965358734,0.09673729538917542,0.018813680857419968
1706236773006604870,0.1325783580541611,9.762796401977539,-1.0490509271621706,-0.16482365131378174,0.09463022649288177,0.02111358940601349
1706236773014764056,0.12376370280981065,9.75603771209717,-1.0465803146362305,-0.16359956562519073,0.09244859963655472,0.023005863651633263
1706236773027854222,0.1177150383591652,9.756721496582031,-1.049898624420166,-0.16196395456790924,0.0907110795378685,0.023902669548988342
1706236773035841741,0.11750532686710358,9.761798858642578,-1.0508114099502566,-0.16018977761268616,0.08975011855363846,0.02368219569325447
1706236773048007333,0.12779787182807922,9.751978874206545,-1.043381690979004,-0.15901875495910645,0.08959599584341049,0.022610696032643318
1706236773058750093,0.1290138065814972,9.767857551574709,-1.0507111549377441,-0.15881459414958954,0.09004540741443634,0.02120267041027546
1706236773067882185,0.11654659360647203,9.763119697570803,-1.0482987165451052,-0.15924786031246185,0.09087960422039032,0.019996842369437218
1706236773075594611,0.11968434602022172,9.75335693359375,-1.0556344985961914,-0.15983699262142181,0.0919899195432663,0.019246984273195267
1706236773085189148,0.11440432816743852,9.760434150695803,-1.0474739074707031,-0.1604871302843094,0.09316101670265198,0.01883828081190586
1706236773095472796,0.11586538702249528,9.765167236328125,-1.0515286922454834,-0.16139833629131317,0.09402425587177277,0.018533878028392792
1706236773105164926,0.12686856091022494,9.762796401977539,-1.0534213781356814,-0.16266438364982605,0.0944480150938034,0.01821233704686165
1706236773115984074,0.1097726970911026,9.769211769104006,-1.0351136922836306,-0.16404561698436737,0.09469333291053772,0.017920805141329765
1706236773126088407,0.11651476472616197,9.752328872680664,-1.0485880374908447,-0.1652042418718338,0.09508423507213593,0.017924224957823753
1706236773134859981,0.11773020774126054,9.767882347106935,-1.058225989341736,-0.16605748236179352,0.09564001858234406,0.01849217712879181
1706236773145683278,0.1198769062757492,9.770892143249513,-1.050976634025574,-0.16666552424430847,0.09617005288600922,0.019385937601327896
1706236773154624222,0.12076792865991594,9.766512870788576,-1.0482085943222048,-0.16696657240390778,0.09669854491949081,0.01995028182864189
1706236773164976481,0.13826374709606173,9.766882896423342,-1.0630691051483154,-0.1667359173297882,0.0974603071808815,0.019758278504014015
1706236773174853278,0.13328208029270175,9.75503921508789,-1.0441975593566895,-0.16558751463890076,0.09845362603664398,0.018811434507369995
1706236773185474259,0.12021572142839433,9.768193244934084,-1.0454990863800049,-0.1632288247346878,0.0992782860994339,0.017456015571951866
1706236773200090667,0.12195736914873125,9.757057189941406,-1.0441601276397705,-0.1600436568260193,0.0994814783334732,0.01638125814497471
1706236773205088685,0.11194762587547302,9.756394386291506,-1.049722671508789,-0.1571909487247467,0.09889546781778336,0.01626221276819706
1706236773215249741,0.12595155835151672,9.760772705078125,-1.0469192266464236,-0.15588083863258362,0.09760303050279617,0.017225882038474083
1706236773224730130,0.11750039458274841,9.771250724792482,-1.0541613101959229,-0.15655001997947693,0.09592077881097794,0.018782952800393105
1706236773234810222,0.1120557188987732,9.762143135070803,-1.053027629852295,-0.15872415900230408,0.0944877341389656,0.02016434818506241
1706236773244992037,0.12053793668746948,9.750317573547365,-1.0464389324188232,-0.16156697273254395,0.09388330578804016,0.02074449323117733
1706236773255295592,0.13054804503917697,9.772272109985352,-1.0505015850067139,-0.1642645299434662,0.09407254308462143,0.020398369058966637
1706236773265582981,0.13467466831207275,9.756739616394045,-1.0457705259323122,-0.1659330278635025,0.09460463374853134,0.019523000344634056
1706236773274848296,0.12159372121095659,9.762825012207031,-1.047978162765503,-0.1657915562391281,0.09515157341957092,0.01869841292500496
1706236773285064167,0.11712366342544556,9.769563674926758,-1.0472831726074219,-0.16382825374603271,0.09559608995914459,0.01834745891392231
1706236773295115463,0.1198820173740387,9.753358840942383,-1.0388851165771484,-0.1610814481973648,0.09594367444515228,0.018627317622303963
1706236773305111333,0.1316896378993988,9.756391525268555,-1.037689805030823,-0.1589057892560959,0.09615528583526611,0.019565077498555183
1706236773315737129,0.12620478868484497,9.758416175842287,-1.037285566329956,-0.1579306274652481,0.09597735106945038,0.021194761618971825
1706236773324685092,0.12678883969783786,9.769877433776857,-1.0383833646774294,-0.15785491466522217,0.09525129944086075,0.023449791595339775
1706236773334726407,0.12222230434417725,9.766180992126467,-1.044013857841492,-0.15808047354221344,0.09434298425912857,0.025985557585954666
1706236773348837315,0.1198047772049904,9.757718086242678,-1.0422110557556152,-0.15830114483833313,0.09391679614782333,0.028200870379805565
1706236773355496778,0.12010567635297777,9.764498710632326,-1.0415760278701784,-0.15859746932983398,0.09426969289779663,0.02951091341674328
1706236773365514704,0.12324918061494829,9.764472007751467,-1.039133429527283,-0.15917544066905975,0.09513989090919495,0.029702985659241676
1706236773374935111,0.104916550219059,9.768186569213867,-1.0368473529815674,-0.16013741493225098,0.09613846987485886,0.0290721096098423
1706236773384982944,0.10964947193861009,9.761104583740234,-1.0454360246658327,-0.16159644722938538,0.09706979990005493,0.028193678706884384
1706236773395190833,0.11473055928945543,9.764807701110842,-1.0465896129608154,-0.1637343317270279,0.09783846139907837,0.027474230155348778
1706236773405263889,0.12090867757797241,9.766151428222656,-1.0354728698730469,-0.16640393435955048,0.09833934903144836,0.026939474046230316
1706236773414975037,0.11813557893037797,9.766143798828125,-1.0334093570709229,-0.16888527572155,0.09855698049068451,0.026565294712781906
1706236773425483722,0.12809184193611145,9.75941562652588,-1.0391646623611452,-0.1702745258808136,0.09859338402748108,0.026592062786221504
1706236773435642092,0.10707326978445054,9.758398056030273,-1.0406510829925537,-0.1700853407382965,0.09846910834312439,0.027242612093687057
1706236773444821815,0.12530227005481723,9.765481948852539,-1.0354299545288086,-0.16859228909015656,0.09805218875408173,0.028351085260510445
1706236773454880963,0.1254421025514603,9.768173217773438,-1.027332901954651,-0.16656967997550964,0.09733983129262924,0.029566293582320213
1706236773464696833,0.12223377078771593,9.76919460296631,-1.0302172899246218,-0.16461487114429474,0.09668857604265213,0.030798867344856262
1706236773475454722,0.12380948662757874,9.745585441589357,-1.0332311391830447,-0.16292384266853333,0.09649287164211273,0.03221241384744644
1706236773484837481,0.12199069559574127,9.75940799713135,-1.033292531967163,-0.1615675836801529,0.09658975154161453,0.03382309526205063
1706236773495213389,0.11605783551931383,9.767858505249023,-1.0467591285705566,-0.16066353023052216,0.09637557715177536,0.03527096286416054
1706236773505273592,0.12537793815135959,9.756038665771484,-1.0332733392715456,-0.16034986078739166,0.09561504423618317,0.03596578910946846
1706236773515223722,0.1299874931573868,9.760064125061037,-1.036649823188782,-0.16058215498924255,0.09463617950677872,0.03553413227200508
1706236773525403444,0.11278111487627031,9.763460159301758,-1.0387219190597536,-0.1610066145658493,0.09381423890590668,0.034183744341135025
1706236773534756185,0.1119111180305481,9.758747100830078,-1.0392311811447146,-0.16136500239372253,0.09334175288677216,0.03249942511320114
1706236773545072463,0.12538176774978638,9.761754035949709,-1.029804348945618,-0.16185174882411957,0.09327680617570877,0.03102332539856434
1706236773556391759,0.11750835925340654,9.749592781066896,-1.032173037528992,-0.16269291937351227,0.0934806689620018,0.030179323628544807
1706236773564926555,0.12175513803958893,9.763479232788086,-1.0430517196655273,-0.16369955241680145,0.09361448884010315,0.03022662363946438
1706236773576353907,0.1261700987815857,9.751970291137695,-1.0447602272033691,-0.1644534021615982,0.09337560832500458,0.0309432502835989
1706236773584865074,0.12427781522274017,9.76479721069336,-1.039980173110962,-0.16459423303604126,0.09274866431951523,0.03159326687455177
1706236773594923185,0.1319890767335892,9.753655433654787,-1.0339224338531494,-0.16391514241695404,0.09198874980211258,0.03153391554951668
1706236773605290074,0.122060663998127,9.755696296691896,-1.0469775199890137,-0.16243474185466766,0.09137288480997086,0.030742917209863663
1706236773615789537,0.12510754168033603,9.757709503173828,-1.0334463119506836,-0.1604745090007782,0.09097413718700409,0.029629940167069435
1706236773624938092,0.11273448169231415,9.75398921966553,-1.0484495162963867,-0.15866132080554962,0.09069729596376419,0.02858949638903141
1706236773635577222,0.12174949795007707,9.76648807525635,-1.0429940223693848,-0.15772834420204163,0.09048926830291748,0.02778221294283867
1706236773644658277,0.12336737662553789,9.76414203643799,-1.05070161819458,-0.1580887734889984,0.09050270915031433,0.027083268389105797
1706236773654698426,0.11531099677085876,9.758372306823732,-1.0430392026901247,-0.1595275104045868,0.09102526307106018,0.026228277012705803
1706236773664774944,0.1175285279750824,9.76279067993164,-1.0417532920837402,-0.16144202649593353,0.0921301618218422,0.025127124041318893
1706236773675788092,0.11407968401908875,9.767845153808594,-1.0449156761169434,-0.16333654522895813,0.09354985505342484,0.02401941642165184
1706236773684721074,0.11883395165205003,9.750956535339357,-1.0412966012954714,-0.1649724245071411,0.09492702782154083,0.023276323452591896
1706236773694819518,0.11577746272087097,9.760434150695803,-1.0413358211517334,-0.16623324155807495,0.09589602053165436,0.02311752364039421
1706236773704754666,0.11835706233978271,9.761775970458984,-1.0462595224380495,-0.16703948378562927,0.09611494094133377,0.02352425642311573
1706236773715477426,0.10967060178518297,9.750959396362305,-1.0367523431777956,-0.16740816831588745,0.09552440047264099,0.024283617734909058
1706236773725597277,0.12032699584960938,9.760080337524414,-1.0477172136306765,-0.16751693189144135,0.09435795247554779,0.0251182708889246
1706236773735701722,0.11913155019283295,9.76276969909668,-1.0314003229141238,-0.1675521433353424,0.09295737743377686,0.025844672694802284
1706236773745536444,0.11477751284837724,9.755354881286623,-1.045939087867737,-0.1675124317407608,0.09175188094377518,0.026446228846907616
1706236773754840870,0.11607425659894945,9.751989364624023,-1.0462318658828738,-0.16733111441135406,0.09105914831161499,0.026953337714076042
1706236773768044685,0.1231997534632683,9.764812469482422,-1.0415028333663943,-0.16704843938350677,0.09082683175802231,0.027230961248278618
1706236773777871851,0.12326543033123016,9.757063865661623,-1.0420444011688232,-0.16666413843631744,0.09085290879011154,0.02709200419485569
1706236773785242685,0.11509389430284502,9.759050369262695,-1.0447170734405518,-0.1660517454147339,0.09107809513807297,0.026580188423395157
1706236773795592907,0.12749826908111572,9.750617027282717,-1.039037346839905,-0.16517797112464905,0.09144067019224167,0.025936752557754517
1706236773805627351,0.10934153199195862,9.76076412200928,-1.0420491695404053,-0.16422139108181,0.091705821454525,0.025427961722016335
1706236773814941500,0.11879757791757585,9.768512725830078,-1.043619155883789,-0.16350586712360382,0.09171774238348007,0.025242038071155548
1706236773828832259,0.11206424236297607,9.759740829467773,-1.036672830581665,-0.1633927971124649,0.09172040224075317,0.025408871471881866
1706236773848337925,0.11491821706295013,9.768501281738281,-1.0338141918182373,-0.16406841576099396,0.09216323494911194,0.025890041142702103
1706236773848421537,0.10630239546298981,9.763786315917969,-1.0438696146011355,-0.1654420644044876,0.09326013922691345,0.0267062745988369
1706236773862217185,0.11162830144166948,9.758398056030273,-1.045549511909485,-0.16729067265987396,0.09483984112739563,0.02774479240179062
1706236773884795092,0.11854148656129838,9.75263786315918,-1.0392858982086182,-0.17174173891544342,0.09763169288635254,0.028106095269322395
1706236773895861685,0.1265508532524109,9.761767387390138,-1.0419456958770752,-0.17124244570732117,0.09713367372751236,0.02677995152771473
1706236773910878629,0.12058082222938538,9.759759902954102,-1.0492385625839236,-0.16956469416618347,0.0961080938577652,0.025285793468356133
1706236773918182740,0.12646980583667758,9.764825820922852,-1.0434627532958984,-0.1670609712600708,0.09486785531044006,0.02408173494040966
1706236773927914555,0.1239823028445244,9.765495300292969,-1.0452156066894531,-0.1642528623342514,0.09388582408428192,0.023315636441111565
1706236773934901111,0.12128828465938568,9.750311851501467,-1.0472211837768555,-0.1616838127374649,0.09353204816579819,0.02292931266129017
1706236773946447777,0.10609196126461029,9.761770248413086,-1.042405128479004,-0.159880593419075,0.09372007846832275,0.022806819528341293
1706236773959876240,0.1195964515209198,9.75364875793457,-1.0451180934906006,-0.1593857854604721,0.0939607098698616,0.022843990474939346
1706236773967681555,0.11773823201656342,9.762771606445312,-1.0449870824813845,-0.1604548990726471,0.09383587539196014,0.022992154583334923
1706236773975482999,0.12669213116168979,9.77054214477539,-1.045384407043457,-0.16262073814868927,0.09337419271469116,0.023205755278468132
1706236773985013851,0.11563096195459367,9.76853656768799,-1.046778678894043,-0.1648419201374054,0.09309052675962448,0.023391474038362503
1706236773995104222,0.12627167999744418,9.75602436065674,-1.0450880527496338,-0.16618722677230835,0.0935727059841156,0.02344575524330139
1706236774005141925,0.1087128445506096,9.753669738769531,-1.051336169242859,-0.16635480523109436,0.09479119628667831,0.023297226056456566
1706236774017850185,0.12162741273641588,9.76515007019043,-1.0421695709228516,-0.16571439802646637,0.09599654376506805,0.02291928604245186
1706236774024761814,0.12685449421405795,9.760083198547365,-1.040245771408081,-0.16489367187023163,0.09647258371114731,0.022421114146709442
1706236774035464203,0.12940339744091037,9.759728431701662,-1.0332278013229372,-0.1641560047864914,0.09613315761089325,0.022172316908836365
1706236774044735481,0.11974436789751054,9.761757850646974,-1.042341947555542,-0.16328205168247223,0.09533671289682388,0.02265867590904236
1706236774054818888,0.12795671820640564,9.76851558685303,-1.0505051612854004,-0.16208237409591675,0.09453027695417404,0.024001469835639
1706236774064934722,0.12613467872142795,9.760107040405273,-1.0468249320983887,-0.16069331765174866,0.09413246810436249,0.02562987059354782
1706236774075504555,0.1189553663134575,9.762107849121094,-1.0483158826828005,-0.15940068662166595,0.09436003118753433,0.026626255363225937
1706236774085231036,0.1171810105443001,9.754683494567873,-1.0442413091659548,-0.15853846073150635,0.09501807391643524,0.026440083980560303
1706236774095865759,0.1184968501329422,9.771224021911623,-1.0469383001327517,-0.15847763419151306,0.09564706683158875,0.025213226675987244
1706236774105104036,0.11808425188064575,9.757373809814453,-1.0436429977416992,-0.15940092504024506,0.09596482664346695,0.023553472012281418
1706236774121373018,0.11928834766149522,9.759389877319336,-1.0454273223876953,-0.1610952615737915,0.0960012823343277,0.022124897688627243
1706236774125642203,0.11281406879425049,9.766482353210451,-1.0432586669921875,-0.16307400166988373,0.09584801644086838,0.02136051282286644
1706236774135882462,0.11895164102315904,9.764775276184084,-1.0445435047149658,-0.16488926112651825,0.09561727941036224,0.021368982270359993
1706236774145783425,0.12182021886110307,9.758729934692383,-1.048407793045044,-0.16625958681106567,0.09551938623189926,0.02196296490728855
1706236774154801147,0.12283360213041307,9.761768341064453,-1.045694351196289,-0.16695673763751984,0.09564805775880814,0.022746901959180832
1706236774167861740,0.12372104823589325,9.759427070617678,-1.0557405948638916,-0.16678738594055176,0.09583845734596252,0.023259853944182396
1706236774174814462,0.11461615562438965,9.766155242919922,-1.0466105937957764,-0.16579048335552216,0.09588219225406647,0.023134097456932068
1706236774185099425,0.11506722867488861,9.755703926086428,-1.0475364923477175,-0.16441313922405243,0.09574040025472641,0.02227928303182125
1706236774254807129,0.12440232932567596,9.764812469482422,-1.0429134368896484,-0.16260084509849548,0.09251350909471512,0.017342843115329742
1706236774265779851,0.1167636513710022,9.76281261444092,-1.0579570531845095,-0.161840558052063,0.09204909205436707,0.017998525872826576
1706236774453824703,0.12300540506839752,9.75808334350586,-1.0566534996032715,-0.16456273198127747,0.0945192351937294,0.010448750108480453
1706236774505127907,0.11969341337680817,9.761818885803224,-1.0608437061309814,-0.16284015774726868,0.09531667083501816,0.009739394299685955
1706236774514654462,0.12995943427085876,9.767547607421875,-1.0597099065780642,-0.16265280544757843,0.09471074491739273,0.009808309376239777
1706236774523834703,0.12738266587257385,9.761132240295412,-1.05116868019104,-0.1627223789691925,0.09417103230953217,0.009991751052439213
1706236774534366647,0.11465401947498322,9.761133193969727,-1.0554437637329102,-0.1625247746706009,0.09406623989343643,0.01026822254061699
1706236774545396610,0.1177576705813408,9.756405830383303,-1.0602319240570068,-0.161935955286026,0.09442757815122604,0.01071039866656065
1706236774554686332,0.1209888607263565,9.764148712158203,-1.0481722354888916,-0.16139960289001465,0.0949205756187439,0.011311270296573639
1706236774563982314,0.12054814398288727,9.765194892883303,-1.0427649021148682,-0.16137781739234924,0.09522990137338638,0.012047982774674892
1706236774575397499,0.11140450090169908,9.75773334503174,-1.0436702966690066,-0.16194391250610352,0.09533990919589996,0.013153799809515476
1706236774584718592,0.11609581112861633,9.758429527282717,-1.0541455745697021,-0.16296958923339844,0.09535326808691025,0.014918304048478603
1706236774594132203,0.11928002536296844,9.771574020385742,-1.043034315109253,-0.1643192619085312,0.0952826663851738,0.017192641273140907
1706236774604347721,0.11751589179039001,9.755374908447266,-1.039631247520447,-0.16573485732078552,0.09519921243190765,0.019463129341602325
1706236774614255647,0.12761242687702182,9.76247787475586,-1.04435133934021,-0.16678844392299652,0.09523791074752808,0.021392054855823517
1706236774624756277,0.12373572587966919,9.759071350097656,-1.0452994108200075,-0.16703134775161743,0.09535449743270874,0.022943546995520592
1706236774634074295,0.1280963569879532,9.765841484069826,-1.0430278778076172,-0.16618922352790833,0.09538976103067398,0.02410006895661354
1706236774644557777,0.12346351146697998,9.76350212097168,-1.0513929128646853,-0.1643417477607727,0.09533965587615967,0.024760620668530464
1706236774653965277,0.11023526638746263,9.763474464416506,-1.044992804527283,-0.1620246171951294,0.09537427127361298,0.02481863647699356
1706236774664294406,0.1153782457113266,9.759745597839357,-1.0462540388107302,-0.1601746678352356,0.09561555087566376,0.0242711640894413
1706236774675117610,0.12152695655822754,9.764485359191896,-1.0492265224456787,-0.1596846580505371,0.09598533064126968,0.02331574261188507
1706236774685951999,0.12135847657918931,9.763465881347656,-1.0441998243331911,-0.1607176512479782,0.09631592035293579,0.02226964756846428
1706236774694571481,0.12150785326957703,9.764144897460938,-1.0441356897354128,-0.16257143020629883,0.09654025733470917,0.02143128216266632
1706236774704648980,0.11827436089515686,9.75301265716553,-1.0389513969421387,-0.16427762806415558,0.09665501117706299,0.02106865867972374
1706236774713768499,0.1139366999268532,9.767861366271974,-1.043039917945862,-0.16526474058628082,0.0965668261051178,0.02138996683061123
1706236774731010888,0.1285264790058136,9.770241737365724,-1.0450348854064941,-0.16552196443080902,0.096250981092453,0.02238927036523819
1706236774734711332,0.12594218552112582,9.753327369689943,-1.0375046730041504,-0.16521760821342468,0.09596820920705795,0.023768113926053047
1706236774744004166,0.1271345615386963,9.768853187561037,-1.0388929843902588,-0.16434365510940552,0.09596478193998337,0.025156725198030472
1706236774757501906,0.11819958686828613,9.763801574707031,-1.0431231260299685,-0.16289769113063812,0.09619760513305664,0.02636270597577095
1706236774764324092,0.12215661257505418,9.775310516357422,-1.0425044298172,-0.1612229198217392,0.09661069512367249,0.027290888130664825
1706236774775705666,0.11579340696334839,9.759444236755373,-1.042837142944336,-0.15993815660476685,0.09731747210025787,0.02780318260192871
1706236774784529795,0.12954433262348178,9.76313591003418,-1.0377216339111328,-0.15951666235923767,0.09830468147993088,0.02782881259918213
1706236774794548555,0.1310735046863556,9.770212173461914,-1.0514500141143799,-0.15987366437911987,0.09924430400133133,0.02747143618762493
1706236774803783832,0.12466530501842499,9.76111698150635,-1.0441100597381592,-0.16036082804203033,0.09980323165655136,0.02684682235121727
1706236774814273869,0.12507060170173645,9.764825820922852,-1.0482299327850342,-0.16032801568508148,0.09990400075912476,0.02594628743827343
1706236774824650962,0.1321709901094437,9.756045341491701,-1.0459551811218262,-0.1596260964870453,0.09957572817802429,0.0247797854244709
1706236774833801906,0.12077836692333221,9.766482353210451,-1.039253354072571,-0.15850818157196045,0.09882500767707825,0.023540163412690163
1706236774844083721,0.12006397545337677,9.762123107910156,-1.0444550514221191,-0.15739846229553223,0.09776124358177185,0.022595398128032684
1706236774924621962,0.12610185146331787,9.758411407470703,-1.0386973619461062,-0.16051273047924042,0.10284885764122009,0.026217972859740257
1706236774934437462,0.14310050010681152,9.77424716949463,-1.042539358139038,-0.15860803425312042,0.10240703821182251,0.02658569999039173
1706236774945373999,0.13407771289348605,9.772928237915039,-1.042539358139038,-0.1564367413520813,0.10157399624586105,0.027327056974172592
1706236774975906295,0.11850883066654205,9.771224975585938,-1.0376352071762087,-0.14952465891838074,0.10097833722829819,0.028730306774377823
1706236774984029184,0.12498516589403154,9.772227287292482,-1.035433650016785,-0.14839139580726624,0.10136865824460983,0.028453657403588295
1706236774994492054,0.13224203884601596,9.763448715209961,-1.0382901430130007,-0.1488742232322693,0.10186325013637543,0.028130007907748222
1706236775004302851,0.12879620492458346,9.776590347290039,-1.0285319089889529,-0.1508350819349289,0.10240523517131805,0.028163446113467216
1706236775017487073,0.11925949901342393,9.774920463562013,-1.0395822525024414,-0.1534164696931839,0.10293857008218765,0.02881990559399128
1706236775023950443,0.12308318167924882,9.770511627197266,-1.0347098112106325,-0.15581130981445312,0.1035589799284935,0.030056744813919067
1706236775033925443,0.13206747174263,9.773221969604492,-1.0411895513534548,-0.15768058598041534,0.10436476022005081,0.03148174658417702
1706236775044574740,0.13237525522708896,9.77257823944092,-1.0402019023895264,-0.1588384509086609,0.10525215417146683,0.03253695368766785
1706236775058682906,0.12734726071357727,9.760074615478516,-1.038604974746704,-0.1590290367603302,0.10595721006393433,0.032801203429698944
1706236775071695869,0.1387670934200287,9.773576736450195,-1.0407217741012575,-0.15816530585289001,0.10614429414272308,0.03220440074801445
1706236775074801795,0.12962771952152255,9.766493797302248,-1.0470893383026123,-0.15646852552890778,0.1056060940027237,0.03098713979125023
1706236775084811536,0.13420490920543673,9.773916244506836,-1.0386844873428347,-0.15434995293617249,0.10452081263065338,0.029456758871674538
1706236775094237721,0.13285565376281738,9.766138076782227,-1.042203426361084,-0.1522962599992752,0.10336073487997055,0.02789604477584362
1706236775104472573,0.1300392746925354,9.767857551574709,-1.0479894876480105,-0.150733083486557,0.10252205282449722,0.026581600308418274
1706236775114292054,0.1308620572090149,9.767487525939943,-1.0442276000976562,-0.1499100774526596,0.10209076851606369,0.02562863565981388
1706236775124367758,0.13359934091567993,9.76344108581543,-1.0452139377593994,-0.1498645544052124,0.1018982008099556,0.02492590807378292
1706236775134760314,0.13212682306766513,9.769532203674318,-1.0461101531982422,-0.15038861334323883,0.10170899331569672,0.024328984320163727
1706236775144795147,0.12078523635864258,9.755347251892092,-1.0464191436767578,-0.151162251830101,0.10134169459342957,0.023779254406690598
1706236775154834295,0.12250184267759325,9.761068344116211,-1.0462193489074707,-0.1520853340625763,0.10063721984624863,0.023263534530997276
1706236775163829869,0.12894028425216675,9.767823219299318,-1.0411485433578493,-0.1533229649066925,0.09948484599590302,0.022813042625784874
1706236775175258739,0.12988735735416415,9.761089324951172,-1.0478541851043701,-0.1548847258090973,0.09805160760879517,0.022532034665346146
1706236775184555925,0.1271631568670273,9.756027221679688,-1.0467892885208132,-0.15638016164302826,0.09673108160495758,0.02249259501695633
1706236775203924851,0.12067086249589921,9.767152786254883,-1.0406771898269656,-0.15736597776412964,0.0957542359828949,0.02262565679848194
1706236775215088239,0.12733338773250583,9.752298355102539,-1.0387110710144043,-0.1580638438463211,0.0947529599070549,0.02310611866414547
1706236775227765091,0.13704082369804382,9.765491485595703,-1.044050693511963,-0.15835779905319214,0.09442160278558731,0.023495415225625038
1706236775233917110,0.11966139078140259,9.754343032836914,-1.0477219820022585,-0.15848827362060547,0.09393182396888733,0.02400686964392662
1706236775244847443,0.12876017391681674,9.764454841613771,-1.0465235710144043,-0.15818879008293152,0.09332957118749619,0.024480504915118217
1706236775253894351,0.12181908637285234,9.762421607971193,-1.0448223352432253,-0.15758280456066132,0.09284721314907074,0.02464163489639759
1706236775265046202,0.1111930087208748,9.755681037902834,-1.0425751209259033,-0.1571328341960907,0.0927128717303276,0.024375664070248604
1706236775275649147,0.12204342335462572,9.764149665832521,-1.0563844442367556,-0.15739044547080994,0.09296059608459473,0.023807687684893608
1706236775285873091,0.10601923614740373,9.758716583251953,-1.048020839691162,-0.15872465074062347,0.09341419488191605,0.02303602360188961
1706236775294403573,0.11771310865879059,9.755682945251467,-1.038532018661499,-0.1611061990261078,0.0938502699136734,0.02207016758620739
1706236775304034573,0.11175254732370378,9.751974105834961,-1.0517829656600954,-0.16412681341171265,0.09401754289865494,0.021123621612787247
1706236775315652017,0.11328992247581482,9.763764381408693,-1.0451294183731081,-0.16715815663337708,0.09367033839225769,0.020554160699248314
1706236775324056388,0.1186559647321701,9.750272750854492,-1.0509566068649294,-0.16958169639110565,0.09280578792095184,0.020461229607462883
1706236775334417776,0.12277447432279588,9.746591567993164,-1.0510381460189822,-0.17093995213508606,0.09163233637809753,0.020611265674233437
1706236775345292313,0.10737679898738861,9.754334449768068,-1.0589195489883425,-0.17101994156837463,0.09024026244878769,0.02061479166150093
1706236775354412536,0.12249132990837097,9.749293327331545,-1.0493340492248535,-0.1700485348701477,0.08862540870904922,0.020096100866794586
1706236775367394184,0.11181987076997758,9.752985000610352,-1.0514354705810547,-0.16864024102687836,0.08695314824581146,0.01895156502723694
1706236775378925110,0.12169544398784637,9.749966621398928,-1.0527317523956299,-0.16737894713878632,0.08552159368991852,0.01749359257519245
1706236775387692591,0.10373583436012268,9.755019187927248,-1.0488601922988894,-0.1665971875190735,0.08456987142562866,0.01621943712234497
1706236775395766443,0.11297946423292161,9.740506172180178,-1.0469282865524294,-0.16650928556919098,0.08415330946445465,0.01551632396876812
1706236775423930962,0.11800803244113922,9.758092880249023,-1.0575752258300781,-0.1704956293106079,0.0833992063999176,0.016859591007232666
1706236775434080165,0.11092256754636766,9.747267723083498,-1.0526113510131836,-0.1720166653394699,0.0828210636973381,0.017248041927814484
1706236775444095758,0.09200012683868408,9.736804962158203,-1.0537724494934082,-0.1729385405778885,0.08242639154195786,0.01706651598215103
1706236775463874869,0.10924513638019562,9.740870475769045,-1.0565171241760254,-0.17351274192333221,0.08211095631122589,0.016370654106140137
1706236775466050536,0.10323476791381836,9.743557929992678,-1.0558960437774658,-0.17434737086296082,0.08140329271554947,0.015389098785817623
1706236775475038610,0.10837432742118835,9.736482620239258,-1.0585838556289675,-0.1756749451160431,0.08002974838018417,0.014330387115478516
1706236775485128147,0.1180841848254204,9.74829959869385,-1.0644625425338747,-0.17710863053798676,0.07818014919757843,0.013272355310618877
1706236775494203110,0.11501297354698181,9.749312400817873,-1.0668110847473145,-0.17791792750358582,0.07638823986053467,0.012106530368328094
1706236775504581684,0.11698955297470093,9.749659538269045,-1.0578358173370361,-0.17746023833751678,0.07534589618444443,0.010638645850121975
1706236775514004165,0.11808422952890398,9.750670433044435,-1.0640079975128174,-0.17559964954853058,0.07556397467851639,0.00888972170650959
1706236775524390961,0.1071566864848137,9.753027915954592,-1.064676642417908,-0.1728217452764511,0.07706688344478607,0.0071747745387256145
1706236775534537684,0.11809207499027252,9.735146522521974,-1.0609567165374756,-0.17001360654830933,0.07935992628335953,0.005816750694066286
1706236775544768091,0.12177680432796478,9.738876342773438,-1.06462299823761,-0.1679680198431015,0.08150327950716019,0.00495672132819891
1706236775554951128,0.11714696884155273,9.751712799072266,-1.0678449869155886,-0.1668781340122223,0.08248677849769592,0.004559042397886515
1706236775563984332,0.13859716057777405,9.74966049194336,-1.0621254444122314,-0.16630889475345612,0.08200636506080627,0.004423771984875202
1706236775575462906,0.12837018072605136,9.751719474792482,-1.0644711256027224,-0.16549637913703918,0.08075067400932312,0.004323882982134819
1706236775584274017,0.12139442563056946,9.759122848510742,-1.0680469274520876,-0.163803830742836,0.07980433851480484,0.004165120422840118
1706236775594585387,0.11912141740322113,9.757769584655763,-1.0591326951980593,-0.16132736206054688,0.07999496161937714,0.00395285664126277
1706236775604633480,0.1112586483359337,9.753355979919435,-1.0517925024032595,-0.15900319814682007,0.08159884065389633,0.0038235210813581944
1706236775614810924,0.11971378326416016,9.76115131378174,-1.056335687637329,-0.1579544097185135,0.0842614620923996,0.004156951792538166
1706236775624886036,0.11634811758995056,9.747977256774904,-1.0601762533187868,-0.15871092677116394,0.08720628172159195,0.005313223227858543
1706236775634145332,0.1279600113630295,9.752721786499023,-1.0683393478393555,-0.1608700305223465,0.08958126604557037,0.0071244859136641026
1706236775644412758,0.13024042546749118,9.76317024230957,-1.0557996034622195,-0.16330203413963318,0.09079192578792572,0.008856131695210934
1706236775654919073,0.14099815487861633,9.759130477905273,-1.0538232326507568,-0.16465505957603455,0.09087467193603516,0.009844248183071613
1706236775664516758,0.13695122301578525,9.769270896911623,-1.0642001628875732,-0.16390687227249146,0.09052368998527527,0.010047206655144691
1706236775675472573,0.12440292537212372,9.749990463256836,-1.0466870069503786,-0.16089080274105072,0.09054262936115265,0.009872597642242908
1706236775683968721,0.12474780529737474,9.762475013732912,-1.0436615943908691,-0.1565857231616974,0.09121424704790115,0.00985768809914589
1706236775693998035,0.13046573102474215,9.760144233703615,-1.0499134063720703,-0.1526765376329422,0.09222391992807388,0.010599750094115734
1706236775704442906,0.1293855905532837,9.76856327056885,-1.0429052114486697,-0.15048138797283173,0.09318186342716217,0.012459027580916882
1706236775714882202,0.11859126389026642,9.759799003601076,-1.0536140203475954,-0.15031175315380096,0.09402073919773102,0.015209965407848358
1706236775734410647,0.12848442792892456,9.759453773498537,-1.0387564897537234,-0.15402112901210785,0.09562643617391586,0.020510880276560783
1706236775744693147,0.12579014897346497,9.770241737365724,-1.0343936681747439,-0.15626312792301178,0.09625016897916794,0.022117601707577705
1706236775754777628,0.13042770326137546,9.774309158325195,-1.0428253412246706,-0.15775440633296967,0.09675443172454834,0.023356199264526367
1706236775764955128,0.1367229372262955,9.770922660827638,-1.0406231880187988,-0.15818023681640625,0.09748408943414688,0.02467700093984604
1706236775775292054,0.1281421333551407,9.776309013366701,-1.0423552989959717,-0.15752477943897247,0.09882071614265442,0.02609967812895775
1706236775784257313,0.13017420470714572,9.780030250549318,-1.038205862045288,-0.15603609383106232,0.10086881369352341,0.02732832357287407
1706236775794633091,0.1297993212938309,9.777996063232422,-1.0348384380340576,-0.15426212549209595,0.10347611457109451,0.028156470507383347
1706236775804861147,0.12498094886541368,9.766862869262695,-1.042941451072693,-0.1528392881155014,0.10629018396139145,0.02865186519920826
1706236775813868832,0.12886144220829013,9.774625778198242,-1.0372252464294434,-0.15221285820007324,0.10869602859020233,0.028979014605283737
1706236775823937646,0.12552426755428317,9.77798080444336,-1.0253870487213135,-0.15250706672668457,0.11007347702980042,0.02926892414689064
1706236775834032572,0.14025501906871798,9.777323722839357,-1.029853343963623,-0.15346133708953857,0.11031121015548706,0.029798388481140137
1706236775844650739,0.13298889994621277,9.764144897460938,-1.0255149602890017,-0.1544433981180191,0.10981415957212448,0.03098294883966446
1706236775853983980,0.1292281448841095,9.775965690612795,-1.0250238180160525,-0.15476752817630768,0.10897409170866013,0.03302188962697983
1706236775864227054,0.13019147515296936,9.769882202148438,-1.0312417745590212,-0.1542244851589203,0.10794711858034134,0.03569219633936882
1706236775875623035,0.12202171981334686,9.771193504333498,-1.024999260902405,-0.15324346721172333,0.10686246305704117,0.03843805566430092
1706236775884950313,0.12734529376029968,9.7783203125,-1.0288264751434326,-0.15254507958889008,0.10592401027679443,0.040646206587553024
1706236775893899128,0.12139172852039337,9.771212577819826,-1.021151661872864,-0.1526888608932495,0.10536535084247589,0.04198503866791725
1706236775904005721,0.12431508302688599,9.76852798461914,-1.0209848880767822,-0.15381242334842682,0.10531379282474518,0.04257196560502052
1706236775914938850,0.12789860367774963,9.768845558166506,-1.0212006568908691,-0.15562456846237183,0.10558567941188812,0.042859602719545364
1706236775923899906,0.123708575963974,9.7705078125,-1.018694043159485,-0.15755674242973328,0.10576954483985901,0.043323665857315063
1706236775934013406,0.1246880292892456,9.777951240539553,-1.0236557722091677,-0.15904448926448822,0.10561744123697281,0.04418426379561424
1706236775944927295,0.13112929463386536,9.775575637817383,-1.0187002420425417,-0.15978744626045227,0.10530146211385727,0.04534035176038742
1706236775953915165,0.128930926322937,9.769521713256836,-1.0225677490234375,-0.15972501039505005,0.1052217036485672,0.04650453105568886
1706236775963926646,0.11602371186017992,9.769156455993654,-1.0220451354980469,-0.1589844673871994,0.10553330928087234,0.04739624261856079
1706236775974004443,0.12302591651678087,9.779642105102539,-1.0273364782333376,-0.15802891552448273,0.10600985586643219,0.04781761020421982
1706236775984491591,0.11858871579170227,9.768814086914062,-1.0197234153747559,-0.15754449367523193,0.10640430450439453,0.04766283556818962
1706236775994634461,0.12874221801757812,9.771546363830568,-1.0263655185699463,-0.1579321324825287,0.10665132850408554,0.04699650779366493
1706236776004944572,0.12134730070829393,9.765453338623047,-1.026771068572998,-0.15899784862995148,0.10667859762907028,0.046043749898672104
1706236776019443257,0.12192509323358537,9.769161224365234,-1.0289270877838135,-0.16019213199615479,0.10631933808326721,0.04499674215912819
1706236776024189498,0.12501370906829834,9.76545524597168,-1.0336371660232546,-0.16106899082660675,0.10546938329935074,0.04387926310300827
1706236776035013850,0.12372595071792603,9.771526336669922,-1.033640265464783,-0.1614581197500229,0.10422990471124649,0.04258096218109131
1706236776043875998,0.12317610532045366,9.757997512817383,-1.028813123703003,-0.16137361526489258,0.10286249220371246,0.041008081287145615
1706236776056099276,0.10908204317092896,9.76509189605713,-1.026885747909546,-0.1610274463891983,0.1015566885471344,0.03930404782295227
1706236776071764239,0.12221994251012804,9.755670547485352,-1.0336407423019411,-0.16088330745697021,0.10027790069580078,0.03786762058734894
1706236776082971832,0.11347077041864397,9.766471862792969,-1.0341787338256836,-0.16139420866966248,0.09890338033437729,0.037007492035627365
1706236776084672850,0.11908612400293352,9.759375572204592,-1.03053617477417,-0.16262516379356384,0.09745768457651138,0.03666296228766441
1706236776095622813,0.11811364442110063,9.759756088256836,-1.0574647188186648,-0.1642366349697113,0.09613869339227676,0.0364450179040432
1706236776104150794,0.12372104823589325,9.747578620910646,-1.0397444963455202,-0.1657070517539978,0.09505476802587509,0.035716164857149124
1706236776114451665,0.12620952725410461,9.761402130126953,-1.0364010334014893,-0.16650661826133728,0.09402923285961151,0.03393755108118057
1706236776124491887,0.1209605857729912,9.759388923645021,-1.0430980920791628,-0.16627421975135803,0.09286487847566605,0.03128743916749954
1706236776164213850,0.12399478256702423,9.7418212890625,-1.0350695848464968,-0.1610436588525772,0.09100176393985748,0.02437627874314785
1706236776173970239,0.13180896639823914,9.754659652709961,-1.0514123439788818,-0.16094017028808594,0.09084854274988174,0.023902524262666702
1706236776183981109,0.11440441012382507,9.751967430114748,-1.0419701337814333,-0.1610472947359085,0.08984889835119247,0.023793887346982956
1706236776194750628,0.1355632990598679,9.761780738830568,-1.0500891208648682,-0.16094626486301422,0.08817552775144577,0.02389175072312355
1706236776233959350,0.11711567640304565,9.74758529663086,-1.0470633506774902,-0.1583363562822342,0.08824078738689423,0.021389693021774292
1706236776504423387,0.13405358791351318,9.764149665832521,-1.0561684370040896,-0.14940671622753143,0.09954708814620972,0.01936265453696251
1706236776594548702,0.12689080834388733,9.757404327392578,-1.0539718866348269,-0.1596580445766449,0.09558870643377304,0.010617498308420181
1706236776604594165,0.13503651320934298,9.761796951293945,-1.0550764799118044,-0.1598283052444458,0.0932832658290863,0.010958604514598846
1706236776817209164,0.12699733674526217,9.776310920715334,-1.0488363504409792,-0.15721692144870758,0.09369554370641708,0.02161855250597
1706236777536645294,0.12827713787555697,9.761452674865724,-1.0554307699203493,-0.15680630505084991,0.09925078600645065,0.01848161406815052
1706236777547062460,0.12620450556278232,9.77360248565674,-1.0519702434539795,-0.15721285343170166,0.0984501987695694,0.018752189353108406
1706236779366071237,0.13276107609272006,9.759773254394531,-1.0410019159317019,-0.1574765294790268,0.09780671447515488,0.01880836673080921
1706236779375097959,0.12369758635759355,9.762138366699219,-1.0423290729522705,-0.15741877257823944,0.09759269654750824,0.018766533583402634
1706236779385917311,0.11497947573661804,9.75471591949463,-1.036013722419739,-0.15708357095718384,0.09766431152820587,0.019080067053437233
1706236779625122589,-0.04090987145900726,10.17524814605713,-0.6606191396713257,-0.20015835762023926,0.01109478622674942,0.16544434428215027
1706236779655706144,0.08389541506767273,9.391755104064943,-1.231034517288208,-0.22540435194969177,0.10927542299032211,0.11602188646793365
1706236779664419885,0.28484287858009344,9.961247444152834,-0.8432478904724121,-0.21341021358966827,0.15097008645534515,0.10165031254291534
1706236779674456329,0.010132324881851675,9.893718719482422,-0.8155787587165834,-0.1893623322248459,0.1638876348733902,0.08492770045995712
1706236779684565033,0.05700922757387161,9.575357437133789,-0.9851871132850648,-0.16116169095039368,0.1515216827392578,0.07283476740121841
1706236779694862792,0.1431349217891693,9.909892082214357,-0.9602622389793397,-0.14043812453746796,0.12891073524951935,0.07452268898487091
1706236779704267292,0.16598030924797058,9.759068489074709,-0.7783986330032349,-0.134676992893219,0.107716403901577,0.09041494131088257
1706236779715087070,0.17835333943367004,9.738804817199709,-1.2242305278778076,-0.1411709487438202,0.09456110000610352,0.11348611861467361
1706236779724416626,0.13264420628547668,9.829821586608888,-0.8691533207893373,-0.1507498025894165,0.09150509536266327,0.1334618180990219
1706236779734496477,0.1393712013959885,9.643257141113281,-0.972494661808014,-0.15586227178573608,0.09556214511394501,0.14093096554279327
1706236779744737848,0.1733221411705017,9.78121089935303,-1.1650968790054324,-0.15441995859146118,0.10092514008283615,0.13338883221149445
1706236779755082718,0.13940910995006564,9.827960968017578,-1.0618324279785156,-0.14819395542144775,0.10263282805681229,0.11347010731697083
1706236779774289774,0.10961103439331055,9.665706634521484,-1.1161922216415407,-0.13422277569770813,0.10296370089054108,0.05230667069554329
1706236779784812903,0.12561267614364624,9.878173828125,-0.8143921494483949,-0.1331990510225296,0.11104919761419296,0.02607625536620617
1706236779794855200,0.1023969277739525,9.831961631774904,-0.9945314526557923,-0.13813506066799164,0.1231936663389206,0.01440078392624855
1706236779804906218,0.12531274557113647,9.70728874206543,-0.9709125161170961,-0.14738236367702484,0.13531579077243805,0.021926209330558777
1706236779814327385,0.14133378863334656,9.589217185974123,-0.9418662786483765,-0.1577853411436081,0.14268529415130615,0.0456213615834713
1706236779825297089,0.11551189422607422,9.796465873718263,-0.9446587562561035,-0.1659577637910843,0.13863611221313477,0.07616540789604187
1706236779835131996,0.11295991390943529,9.779397964477539,-1.0553723573684695,-0.16979460418224335,0.12036821246147156,0.10367365181446075
1706236779847940533,0.13519571721553805,9.889097213745117,-1.0718648433685303,-0.1694837361574173,0.09527185559272766,0.12013416737318039
1706236779857711644,0.15207462012767795,9.784431457519531,-1.0403295755386355,-0.16652297973632812,0.07697362452745438,0.11997295916080475
1706236779864629329,0.14665170013904574,9.759097099304201,-1.049712896347046,-0.16197259724140167,0.07488446682691574,0.10272613912820816
1706236779874686607,0.10994783043861389,9.821133613586428,-0.9911344647407533,-0.15637114644050598,0.08804615586996078,0.07460043579339981
1706236779884583126,0.1449487805366516,9.763983726501467,-0.9431653618812562,-0.15082702040672302,0.10816880315542221,0.04622996598482132
1706236779894582033,0.14449383318424228,9.728254318237305,-0.9652359485626221,-0.14681988954544067,0.12614572048187256,0.028414787724614143
1706236779905110848,0.12258107215166093,9.689076423645021,-0.9563843607902528,-0.14493480324745178,0.13499347865581512,0.027509383857250214
1706236779914546922,0.1198706179857254,9.805602073669435,-0.9858818054199219,-0.14489364624023438,0.13108476996421814,0.04253488406538963
1706236779924817163,0.14140921831130981,9.80494499206543,-0.9995462298393251,-0.14639349281787872,0.11668470501899719,0.06618668138980865
1706236779935371477,0.15879562497138977,9.77590560913086,-0.9975301027297974,-0.14880934357643127,0.0998629704117775,0.08880092948675156
1706236779945464866,0.14321061968803406,9.750672340393068,-1.032797694206238,-0.1506471484899521,0.08890346437692642,0.10261894762516022
1706236779955188903,0.14669647812843323,9.716238975524904,-1.0241059064865115,-0.1503792703151703,0.08646107465028763,0.10417477786540985
1706236779965209700,0.14561313390731812,9.787683486938477,-0.9618118405342103,-0.14770838618278503,0.08937720209360123,0.09472562372684479
1706236779974545811,0.11895497888326646,9.763390541076662,-0.9837276935577393,-0.1437506526708603,0.09316983819007874,0.07974860072135925
1706236779986286237,0.12300757318735124,9.752254486083984,-0.9731630086898804,-0.14046040177345276,0.09564565867185593,0.0666060596704483
1706236779995316959,0.12358013540506364,9.777634620666506,-1.0316016674041748,-0.13975033164024353,0.09668616205453873,0.06039568409323692
1706236780005294644,0.1388860791921616,9.823195457458498,-1.02180814743042,-0.1423252671957016,0.09713926911354065,0.0611695796251297
1706236780015887329,0.15793704986572266,9.787772178649904,-1.0481687784194949,-0.14698776602745056,0.09881657361984253,0.0647878646850586
1706236780024870218,0.17824766039848328,9.733156204223633,-1.081714749336243,-0.1510055661201477,0.10318374633789062,0.06601963937282562
1706236780034956255,0.18145576119422913,9.744237899780273,-1.0378855466842654,-0.1513286530971527,0.1089092418551445,0.06125370040535927
1706236780047086848,0.18486787378787997,9.775350570678711,-1.0578663349151611,-0.14612412452697754,0.11237366497516632,0.050098419189453125
1706236780055216403,0.1694965660572052,9.780323982238771,-1.011770248413086,-0.13583974540233612,0.11134584248065948,0.03564625605940819
1706236780065468959,0.16172836720943454,9.762782096862795,-1.0115962028503418,-0.12317728996276855,0.1069762334227562,0.022953534498810768
1706236780074932903,0.151081457734108,9.736120223999023,-1.024076581001282,-0.11198670417070389,0.10191240161657333,0.01655137538909912
1706236780084753274,0.15357166528701782,9.792171478271484,-1.0197138786315918,-0.1055983453989029,0.09778585284948349,0.01817864365875721
1706236780094841588,0.17961958050727844,9.795962333679201,-1.0660560131072998,-0.10528688877820969,0.0953233540058136,0.02589556947350502
1706236780104888829,0.17931886017322543,9.77534580230713,-1.0888872146606445,-0.10957147926092148,0.09551238268613815,0.03492351993918419
1706236780114884848,0.1745024770498276,9.75950813293457,-1.0974936485290527,-0.1150822639465332,0.09884369373321533,0.03957480192184448
1706236780124391533,0.18096365034580233,9.77131462097168,-1.1000056266784668,-0.11865000426769257,0.1039741188287735,0.03582705557346344
1706236780134565218,0.17955125868320468,9.815132141113281,-1.0646686553955078,-0.11883077770471573,0.10868413001298904,0.0234679002314806
1706236780145406033,0.1681635230779648,9.783409118652344,-1.0646231174468994,-0.1160021647810936,0.11208000034093857,0.006402061320841312
1706236780154361866,0.15968628227710727,9.747637748718263,-1.0515218973159792,-0.11181168258190155,0.11464934051036835,-0.009263953194022179
1706236780164398959,0.14275227487087253,9.753964424133303,-0.985189974308014,-0.10852077603340149,0.11621005833148956,-0.017983203753829002
1706236780174447385,0.14105467498302462,9.760324478149414,-0.9583754539489746,-0.10820946842432022,0.11537828296422958,-0.016115527600049973
1706236780185603070,0.14279584586620334,9.770851135253906,-0.990451753139496,-0.1119304746389389,0.11138267815113068,-0.0023026238195598125
1706236780194722385,0.14396163821220398,9.730768203735352,-1.0488609075546267,-0.11915980279445648,0.10514774173498154,0.021063685417175293
1706236780204874977,0.16863550245761874,9.763171195983888,-1.0623691082000732,-0.12789027392864227,0.0982908383011818,0.0467878058552742
1706236780216257477,0.14010064303874972,9.793898582458498,-1.0752031803131104,-0.13543376326560974,0.09225985407829285,0.06538717448711395
1706236780225245496,0.15104129910469055,9.828310966491701,-1.0863562822341921,-0.1397860050201416,0.08898325264453888,0.07001431286334991
1706236780235343292,0.14698562026023865,9.80364990234375,-1.062997579574585,-0.14064888656139374,0.09097795933485031,0.05967513844370842
1706236780245557329,0.14014999568462375,9.757334709167482,-1.0476683378219607,-0.13916856050491333,0.09925667941570282,0.03915417194366455
1706236780255037625,0.14265620708465576,9.747526168823242,-1.0103790760040283,-0.13700465857982635,0.11108922958374023,0.016723856329917908
1706236780264935588,0.10960564017295837,9.752827644348146,-0.9351723790168763,-0.13573163747787476,0.12087325751781464,0.0012118906015530229
1706236780274996848,0.11024742573499681,9.716729164123537,-0.9391130208969116,-0.1367131769657135,0.12366524338722229,-0.00042565990588627756
1706236780284666403,0.10009587556123735,9.730916976928711,-0.9408646225929261,-0.14095774292945862,0.11768148839473724,0.014663361012935638
1706236780294851848,0.12910312414169312,9.730667114257812,-0.9922329187393188,-0.1484699845314026,0.10442661494016647,0.043284814804792404
1706236780304892051,0.12377405911684038,9.788395881652834,-1.0114867687225342,-0.15762904286384583,0.08798999339342117,0.07651937752962112
1706236780314974922,0.12459191679954529,9.772894859313967,-1.0324980020523074,-0.16569304466247559,0.07401242852210999,0.10324746370315552
1706236780325022477,0.11886720359325409,9.770467758178711,-1.0160086154937744,-0.17038969695568085,0.06749214977025986,0.11515135318040848
1706236780334600459,0.1267390251159668,9.746532440185547,-1.0397056341171267,-0.17112229764461517,0.07003655284643173,0.11017387360334396
1706236780345930144,0.1091020628809929,9.751881599426271,-1.0099408626556396,-0.16888760030269623,0.07896465808153152,0.09246119111776352
1706236780355779459,0.11248930543661119,9.744771957397461,-0.9889849424362183,-0.16554230451583862,0.08922907710075378,0.06976127624511719
1706236780364940773,0.08697260171175004,9.718095779418945,-0.9807144403457642,-0.16312319040298462,0.09621182084083557,0.050408512353897095
1706236780374940885,0.11615914106369019,9.744696617126467,-0.9440000057220459,-0.16319382190704346,0.09734068810939789,0.040734291076660156
1706236780385047718,0.09982923418283464,9.759919166564943,-0.9622577428817749,-0.16612346470355988,0.09271334111690521,0.043379172682762146
1706236780395104033,0.10425844043493272,9.761635780334474,-0.9640902280807495,-0.1709023118019104,0.08510066568851471,0.05683734640479088
1706236780404501755,0.12480453401803972,9.741122245788576,-1.0137916803359988,-0.1758224368095398,0.0784115418791771,0.0759744644165039
1706236780415304181,0.11986235529184343,9.738379478454592,-0.9967297315597534,-0.1791725903749466,0.0751480758190155,0.09367521852254868
1706236780425428959,0.10065390169620514,9.745532035827638,-1.0379624366760254,-0.17980343103408813,0.07522639632225037,0.10360081493854523
1706236780434957033,0.10890930145978929,9.770155906677248,-1.0313160419464111,-0.1778957098722458,0.07712514698505402,0.10258409380912781
1706236780447576792,0.09682846069335938,9.74551296234131,-1.0319553613662722,-0.1749781370162964,0.07966597378253937,0.09131083637475967
1706236780463396310,0.10969749093055725,9.73671627044678,-1.0189130306243896,-0.1728435605764389,0.08230651915073395,0.07363239675760269
1706236780474934903,0.12831963598728183,9.765735626220703,-0.9969465732574463,-0.17320096492767334,0.08484353125095367,0.04123367741703987
1706236780484758866,0.13442866504192355,9.713071823120117,-1.003352165222168,-0.17374837398529053,0.08381732553243637,0.03536080941557884
1706236780494915384,0.1367800533771515,9.720849037170412,-1.0042712688446045,-0.17248207330703735,0.08156676590442657,0.037834543734788895
1706236780524340921,0.13212978839874268,9.726281166076662,-1.0127772092819216,-0.1686907559633255,0.07796693593263626,0.046050600707530975
1706236780524426921,0.14407745003700256,9.761112213134766,-1.0460103750228884,-0.16285914182662964,0.07307149469852448,0.05576254054903984
1706236780532218551,0.1487054377794266,9.755025863647461,-1.0417265892028809,-0.15618285536766052,0.06831639260053635,0.0625571608543396
1706236780545295681,0.12191379070281982,9.73443126678467,-1.0357455015182497,-0.14493314921855927,0.06727723777294159,0.05735774338245392
1706236780560206088,0.1060507819056511,9.755011558532717,-1.038038730621338,-0.1426718384027481,0.07127552479505539,0.0468735545873642
1706236780565136033,0.12943921983242038,9.755683898925781,-1.032484769821167,-0.14398051798343658,0.07607340067625046,0.03553442656993866
1706236780575269681,0.12319617718458177,9.745921134948732,-1.0448439121246338,-0.14856432378292084,0.08028499037027359,0.026756756007671356
1706236780585965070,0.12640474736690524,9.742849349975586,-1.039382576942444,-0.1546916663646698,0.08329743891954422,0.022228699177503586
1706236780595282588,0.13624669611454013,9.769888877868654,-1.0500286817550661,-0.16010406613349915,0.08490167558193207,0.021608775481581688
1706236780605123421,0.13965754210948947,9.778987884521484,-1.0508674383163454,-0.16304774582386017,0.08556661009788513,0.023221831768751144
1706236780619007829,0.14186204969882968,9.756393432617188,-1.0500421524047852,-0.16270887851715088,0.08656083047389984,0.025073055177927017
1706236780624703773,0.14776870608329773,9.728722572326662,-1.047009348869324,-0.1592792123556137,0.08870630711317062,0.02574879489839077
1706236780636056255,0.14127849042415622,9.736478805541992,-1.0391136407852175,-0.153767392039299,0.09104558080434799,0.02493661642074585
1706236780645332199,0.15481214225292209,9.764506340026857,-1.0370870828628542,-0.14756423234939575,0.0916396751999855,0.023360470309853554
1706236780658533644,0.15300615131855014,9.759444236755373,-1.0271397829055788,-0.141877219080925,0.08980879187583923,0.022249097004532814
1706236780665014255,0.13646358251571655,9.747276306152344,-1.020313024520874,-0.13740499317646027,0.0868319720029831,0.02273021824657917
1706236780675302199,0.14330027997493747,9.764167785644531,-1.036605477333069,-0.13456688821315765,0.08448165655136108,0.025350099429488182
1706236780684869532,0.14614675939083102,9.779362678527834,-1.0338375568389893,-0.1336578130722046,0.0838431864976883,0.02966613508760929
1706236780695125310,0.13148151338100436,9.778998374938967,-1.0336253643035889,-0.13456590473651886,0.08549361675977707,0.03430889546871185
1706236780705050088,0.1293019950389862,9.75369644165039,-1.0505686998367312,-0.13682496547698975,0.08953873813152313,0.03771667554974556
1706236780714754218,0.14613766968250277,9.762472152709961,-1.046314835548401,-0.13994699716567993,0.09498990327119827,0.03878374025225639
1706236780726030866,0.14512385427951816,9.778334617614748,-1.032220244407654,-0.14325767755508423,0.09998619556427002,0.03719150647521019
1706236780735033903,0.14332912862300876,9.780003547668459,-1.024191737174988,-0.14574414491653442,0.10324618220329285,0.033781543374061584
1706236780745148681,0.1532840579748154,9.775588989257812,-1.0153546333312988,-0.14654594659805298,0.10491794347763062,0.030478741973638535
1706236780755845273,0.14488206803798678,9.76650142669678,-1.007145881652832,-0.1454375833272934,0.10585132986307144,0.029399143531918526
1706236780765694440,0.1476855129003525,9.770210266113281,-0.9948914051055908,-0.14285790920257568,0.10652001947164536,0.0318819023668766
1706236780774841755,0.1467076539993286,9.790115356445312,-0.9980527758598329,-0.13970023393630981,0.10692436248064041,0.03808671608567238
1706236780784593014,0.13618503510952,9.772905349731445,-0.997943639755249,-0.13697077333927155,0.10721805691719055,0.04701957851648331
1706236780795934162,0.13483102619647983,9.769196510314943,-1.0091512203216553,-0.13552144169807434,0.10776256024837494,0.05678161606192589
1706236780804482014,0.12113361060619354,9.778662681579592,-1.0129656791687012,-0.13595841825008392,0.10855226963758469,0.06508774310350418
1706236780819628032,0.11495119333267212,9.789427757263185,-1.0108635425567627,-0.13860167562961578,0.10928867012262344,0.07003745436668396
1706236780831691477,0.12969425320625305,9.776988029479982,-1.0194469690322878,-0.1433582454919815,0.10999257862567902,0.07084044814109802
1706236780839813366,0.12725165486335754,9.76683235168457,-1.00942063331604,-0.14942201972007751,0.11087465286254883,0.06803642958402634
1706236780849963477,0.13536939024925232,9.761764526367188,-1.0143703222274782,-0.15525606274604797,0.11163749545812607,0.06314137578010559
1706236780855877940,0.14068591594696045,9.767505645751953,-1.009228229522705,-0.1592034101486206,0.11145615577697754,0.058014366775751114
1706236780865255218,0.13976195454597473,9.779629707336428,-0.9872873425483705,-0.1602036952972412,0.10982625931501389,0.05429907888174057
1706236780880105829,0.1462523341178894,9.77726459503174,-0.9801875948905946,-0.15814420580863953,0.10726501792669296,0.053281597793102264
1706236780884604014,0.1336600631475449,9.767829895019531,-0.9788818359375,-0.1538400650024414,0.10497961938381195,0.05583152547478676
1706236780894844014,0.13931918144226074,9.771517753601076,-0.9723395109176636,-0.14874227344989777,0.10383492708206177,0.06198083236813545
1706236780905077403,0.13674588501453402,9.773896217346193,-0.9844127297401429,-0.1444101333618164,0.1038375049829483,0.07062291353940964
1706236780915066088,0.1299514025449753,9.779626846313477,-0.9847971796989442,-0.1419181078672409,0.10454881936311722,0.07976498454809189
1706236780926873569,0.13495516777038574,9.767805099487305,-0.993832290172577,-0.14160077273845673,0.1055973544716835,0.08716928958892822
1706236780934611347,0.13290587067604065,9.788760185241701,-1.0033903121948242,-0.1431339979171753,0.10675564408302307,0.09108846634626389
1706236780946359662,0.1321660578250885,9.785695075988771,-0.9924278855323793,-0.14572660624980927,0.10799308866262436,0.09080527722835541
1706236780955455125,0.13835267722606662,9.792816162109375,-1.0099731683731081,-0.14843419194221497,0.10959883779287338,0.0868353545665741
1706236780964479106,0.14530189335346225,9.776589393615724,-0.9938647747039795,-0.15041100978851318,0.11188312619924545,0.08065831661224365
1706236780974592755,0.15027801692485812,9.763408660888672,-0.9838094115257264,-0.15096379816532135,0.1145395040512085,0.07419196516275406
1706236780985229347,0.1454329788684845,9.780282974243164,-0.9820808768272401,-0.14967946708202362,0.11648964136838913,0.06941255927085876
1706236780995418162,0.1493775695562363,9.774548530578615,-0.980009913444519,-0.14670111238956451,0.1167096272110939,0.06784053891897202
1706236781005520273,0.15131236612796786,9.774538040161133,-0.9753581881523133,-0.14275360107421875,0.11513694375753403,0.06989691406488419
1706236781015950421,0.14811192452907565,9.769840240478516,-0.9883782863616943,-0.13876710832118988,0.11253359168767929,0.07474691420793533
1706236781025340384,0.13714909553527832,9.765462875366211,-0.9919628500938417,-0.13556094467639923,0.1097293347120285,0.08063263446092606
1706236781034537921,0.13359463214874268,9.784059524536133,-1.0008375644683838,-0.13384833931922913,0.10725028067827225,0.0854303240776062
1706236781046029051,0.1459491401910782,9.774604797363281,-1.0040974617004395,-0.13412334024906158,0.10550999641418457,0.0873892679810524
1706236781055454569,0.14941802620887756,9.771549224853516,-1.01448655128479,-0.13617821037769318,0.10488710552453995,0.08572599291801453
1706236781064453847,0.13473016023635864,9.77589225769043,-1.007306218147278,-0.13897322118282318,0.10537511855363846,0.08076020330190659
1706236781074814754,0.1433933675289154,9.788400650024414,-1.0061571598052979,-0.14137201011180878,0.10656488686800003,0.0737471953034401
1706236781095501829,0.14510974287986755,9.773138046264648,-0.9918969273567201,-0.14315778017044067,0.11017042398452759,0.060990363359451294
1706236781104544810,0.15426602959632874,9.76136589050293,-0.9906154870986938,-0.14243724942207336,0.11223308742046356,0.058463115245103836
1706236781115056810,0.152091383934021,9.757338523864748,-0.9889813065528871,-0.14078488945960999,0.11336882412433624,0.05941680818796158
1706236781125421810,0.15742924809455872,9.76476573944092,-0.997560203075409,-0.13843056559562683,0.11246111243963242,0.06327428668737411
1706236781134444254,0.153436541557312,9.77322006225586,-0.9959826469421387,-0.13567043840885162,0.10926464200019836,0.06854410469532013
1706236781145105014,0.141545906662941,9.76882839202881,-0.9958495497703553,-0.13294821977615356,0.1048247441649437,0.0734047219157219
1706236781154537458,0.15047553181648254,9.772211074829102,-0.9942157864570619,-0.13092076778411865,0.10083099454641342,0.076515793800354
1706236781164653680,0.1433488130569458,9.77288818359375,-1.008453369140625,-0.13020361959934235,0.09858090430498123,0.07743094861507416
1706236781175067810,0.13424454629421237,9.771178245544435,-1.003471851348877,-0.1310136318206787,0.09846588224172592,0.07634606212377548
1706236781185444625,0.1362216025590897,9.766769409179688,-0.9986007809638978,-0.13322177529335022,0.10002933442592621,0.0737677812576294
1706236781195448569,0.1364926248788834,9.773195266723633,-1.0055800676345827,-0.13652166724205017,0.10230117291212082,0.0704888179898262
1706236781204435736,0.15633885562419894,9.768141746520998,-1.0105262994766238,-0.14027176797389984,0.1043090894818306,0.06737960875034332
1706236781216109680,0.1523221731185913,9.767779350280763,-0.9963936805725098,-0.14333313703536987,0.10547375679016113,0.06497257947921753
1706236781224898884,0.14445260167121887,9.758326530456545,-0.9929208755493164,-0.1445021629333496,0.10559408366680145,0.0635237991809845
1706236781234986162,0.1480088382959366,9.743778228759766,-0.9816920161247255,-0.1433916836977005,0.10454652458429337,0.063397116959095
1706236781245934403,0.1508625000715256,9.754950523376467,-0.9858270287513734,-0.14070844650268555,0.10210616886615753,0.0650395080447197
1706236781255395958,0.15470971167087558,9.752584457397461,-0.9780150055885316,-0.13757410645484924,0.09825530648231506,0.06856551021337509
1706236781265697254,0.14946319162845614,9.759689331054688,-0.9939271807670594,-0.13480377197265625,0.09363588690757751,0.07344551384449005
1706236781274650810,0.14213700592517856,9.77149772644043,-0.989004671573639,-0.13282345235347748,0.089494489133358,0.07852274179458618
1706236781285432291,0.1287207305431366,9.784993171691896,-1.0039868354797363,-0.1320086270570755,0.08727346360683441,0.08236493915319443
1706236781295176940,0.13689079880714417,9.77488422393799,-1.0137785673141482,-0.13284006714820862,0.0881226435303688,0.08374325931072235
1706236781305306088,0.14717280864715576,9.768449783325195,-0.9973997473716737,-0.13547402620315552,0.09219866245985031,0.08203337341547012
1706236781316543088,0.14386142790317538,9.746488571166992,-0.9992849230766297,-0.13917824625968933,0.09812011569738388,0.07765141874551773
1706236781324989736,0.14723026752471924,9.75459098815918,-0.9924911856651307,-0.14254719018936157,0.10333003848791122,0.07216794043779373
1706236781335013977,0.1315284222364426,9.761686325073242,-0.9857407808303833,-0.14444930851459503,0.10549453645944595,0.06763087213039398
1706236781346023532,0.12798149883747104,9.761328697204592,-0.9698415398597718,-0.14481079578399658,0.10396391898393631,0.06571408361196518
1706236781355510254,0.13538809120655063,9.754560470581055,-0.9639650583267212,-0.14456303417682648,0.09992987662553787,0.06736138463020325
1706236781375347458,0.12381846457719804,9.751531600952148,-0.9716489315032959,-0.14555144309997559,0.09116392582654953,0.08037638664245605
1706236781384896032,0.1271389573812485,9.758624076843263,-0.978765606880188,-0.14682981371879578,0.0882258489727974,0.08857911080121994
1706236781395225569,0.12000443786382677,9.763359069824219,-0.9925714731216431,-0.14849774539470673,0.08656337112188339,0.09502178430557251
1706236781405303958,0.12272587418556213,9.764394760131836,-1.0067340135574343,-0.15071462094783783,0.0863238200545311,0.09800069779157639
1706236781416001328,0.12326723337173462,9.773495674133303,-0.9999912381172181,-0.15348461270332336,0.08761261403560638,0.09659510850906372
1706236781425514106,0.1218341961503029,9.777544021606445,-1.000046730041504,-0.15647722780704498,0.09036863595247269,0.09104837477207184
1706236781435422162,0.1042863503098488,9.75320816040039,-0.9888804554939271,-0.15926259756088257,0.09424266964197159,0.08300043642520905
1706236781449248365,0.12053081393241882,9.75051784515381,-0.9862396121025087,-0.16172191500663757,0.098264180123806,0.07501360028982162
1706236781454987236,0.11821712553501129,9.757614135742188,-0.9847692251205444,-0.16397176682949066,0.10089383274316788,0.0695377066731453
1706236781464531143,0.12480923533439636,9.75691890716553,-0.9717019200325013,-0.1658770889043808,0.10099411755800247,0.06797847151756287
1706236781485066884,0.12856803834438327,9.76742172241211,-0.9959903359413148,-0.16657939553260803,0.09527035802602768,0.0754978135228157
1706236781495116125,0.1282659620046616,9.761377334594727,-1.0209587812423708,-0.16463232040405273,0.09228213131427765,0.08101214468479156
1706236781505509754,0.13320937752723694,9.765449523925781,-1.0307013988494873,-0.16150358319282532,0.09087671339511871,0.08400452882051468
1706236781514652551,0.13705164194107056,9.772206306457521,-1.0364570617675781,-0.15795975923538208,0.09135513752698898,0.08207052201032639
1706236781525021291,0.12442620098590851,9.77591323852539,-1.0374368429183962,-0.15468323230743408,0.09341462701559067,0.07448611408472061
1706236781534658125,0.13022488355636597,9.760691642761232,-1.0265271663665771,-0.15219542384147644,0.09650832414627075,0.06267134100198746
1706236781544687550,0.14250242710113525,9.774566650390625,-1.0348383188247683,-0.15082740783691406,0.09987171739339828,0.04960990324616432
1706236781554934513,0.1392965763807297,9.761703491210938,-1.018791675567627,-0.15038684010505676,0.10263418406248093,0.03854941949248314
1706236781564909421,0.14100497961044312,9.761707305908203,-1.018358111381531,-0.15014585852622986,0.10415150225162506,0.031802982091903687
1706236781575505662,0.14391887187957764,9.761381149291992,-1.0329636335372927,-0.1493985801935196,0.10414253920316696,0.030144086107611656
1706236781591918495,0.15264956653118136,9.74895763397217,-1.0482237339019775,-0.14783203601837158,0.10264608263969421,0.03253346309065819
1706236781595378199,0.14874979853630066,9.778324127197266,-1.0474021434783936,-0.14542613923549652,0.10003408789634705,0.03636356443166733
1706236781614217032,0.1463679522275925,9.777320861816406,-1.0603561401367188,-0.14237691462039948,0.09720991551876068,0.038656484335660934
1706236781616377773,0.1482920199632645,9.774986267089844,-1.071695327758789,-0.13917382061481476,0.09556366503238678,0.037411779165267944
1706236781640010865,0.1479233205318451,9.753382682800295,-1.0772112607955935,-0.1364627629518509,0.09605201333761215,0.03207024186849594
1706236781640141736,0.1549045443534851,9.767221450805664,-1.0761822462081911,-0.13466821610927582,0.09823405742645264,0.023318486288189888
1706236781647410569,0.1549190878868103,9.764195442199709,-1.0846384763717654,-0.13373279571533203,0.1006445661187172,0.012737044133245945
1706236781674966347,0.15654820203781128,9.77299213409424,-1.084468483924866,-0.13164716958999634,0.10097140073776245,-0.012738705612719059
1706236781687096347,0.149612158536911,9.770953178405763,-1.0872600078582764,-0.13029712438583374,0.09986205399036407,-0.01575833559036255
1706236781694625810,0.16098350286483765,9.763857841491701,-1.08917510509491,-0.12887190282344818,0.09948121011257172,-0.016332173720002174
1706236781704738124,0.15976135432720187,9.769262313842773,-1.091489553451538,-0.12773987650871277,0.09998838603496552,-0.01581762172281742
1706236781715800662,0.16912057995796204,9.76522445678711,-1.0931814908981325,-0.1269148886203766,0.10094372928142548,-0.015539715066552162
1706236781727226717,0.16562116146087646,9.769291877746584,-1.0933340787887575,-0.1260150671005249,0.10179144144058228,-0.016262078657746315
1706236781735344569,0.15817494690418246,9.768951416015625,-1.0922805070877077,-0.12466638535261154,0.10222574323415756,-0.018067331984639168
1706236781744793254,0.14363114535808566,9.773304939270021,-1.0924257040023806,-0.12303526699542999,0.10228607058525085,-0.020505281165242195
1706236781755591013,0.16165074706077576,9.76151752471924,-1.0807490348815918,-0.12192840129137039,0.10221540927886963,-0.022845705971121788
1706236781765739328,0.15584680438041687,9.755435943603516,-1.0940971374511719,-0.12208806723356247,0.10208982229232788,-0.024342242628335953
1706236781774728624,0.14755921065807345,9.764183998107912,-1.0812633037567139,-0.1235070750117302,0.10160403698682785,-0.02456093579530716
1706236781785582569,0.15229596197605136,9.764893531799318,-1.0987187623977663,-0.12566573917865753,0.10044745355844498,-0.02362600713968277
1706236781795035273,0.16113059222698214,9.762184143066406,-1.0897167921066286,-0.12800389528274536,0.09879143536090851,-0.02216760441660881
1706236781805320143,0.15968570113182068,9.769957542419435,-1.0820667743682861,-0.12990301847457886,0.09720022231340408,-0.02093692123889923
1706236781815492865,0.15233866870403293,9.764898300170898,-1.1011115312576296,-0.13075950741767883,0.09623610228300095,-0.020327128469944
1706236781836117365,0.152472585439682,9.757800102233888,-1.080733060836792,-0.13044551014900208,0.09614812582731247,-0.020325321704149246
1706236781836196236,0.14658387005329135,9.736880302429201,-1.0850380659103396,-0.12950818240642548,0.09655530005693436,-0.020695140585303307
1706236781845250476,0.15200324356555941,9.737555503845217,-1.0857911109924316,-0.12879352271556854,0.09633899480104446,-0.020990533754229546
1706236781855458384,0.15513840317726135,9.767587661743164,-1.0828291177749636,-0.12886111438274384,0.09436312317848206,-0.02077055349946022
1706236781867377217,0.15888434648513794,9.766917228698732,-1.0756107568740847,-0.12962277233600616,0.09078561514616013,-0.01987071894109249
1706236781875833032,0.14947950839996338,9.763186454772951,-1.0784305334091189,-0.1304991990327835,0.08732686936855316,-0.018313702195882797
1706236781888190050,0.1434140652418137,9.767911911010742,-1.0776225328445437,-0.13103431463241577,0.08588047325611115,-0.016207223758101463
1706236781896387476,0.1416006088256836,9.75337886810303,-1.0710115432739258,-0.1313754916191101,0.08709892630577087,-0.013791562058031559
1706236781907736124,0.14593811333179477,9.744958877563477,-1.0688621997833252,-0.1320803165435791,0.09009601920843124,-0.011326724663376808
1706236781915022495,0.14625993371009827,9.739212036132812,-1.0655621290206911,-0.13349075615406036,0.09296312183141708,-0.008895446546375751
1706236781927847902,0.14421857893466952,9.738198280334474,-1.0661952495574951,-0.13540372252464294,0.09376044571399689,-0.006430788431316614
1706236781936815384,0.14038953185081482,9.753754615783693,-1.0730210542678835,-0.13732583820819855,0.09160443395376205,-0.003946017008274794
1706236781944960032,0.1388778239488602,9.757797241210938,-1.0833423137664795,-0.1389223039150238,0.08725179731845856,-0.0017849723808467388
1706236781955395291,0.13981592655181885,9.763195037841797,-1.0751793384552002,-0.14018400013446808,0.08273790776729584,-0.0006239328067749739
1706236781965568717,0.1485138386487961,9.751698493957521,-1.072735905647278,-0.14121556282043457,0.08015187829732895,-0.0009789126925170422
1706236781975975754,0.1583777368068695,9.742572784423828,-1.0551903247833252,-0.1418689489364624,0.08032617717981339,-0.0025571100413799286
1706236781988033458,0.13976934552192688,9.74830722808838,-1.056426763534546,-0.14169847965240479,0.08242063969373703,-0.004144600126892328
1706236781994647161,0.14081642031669617,9.736825942993164,-1.0438623428344727,-0.14053033292293549,0.08469386398792267,-0.004215024411678314
1706236782004651328,0.1347106397151947,9.739507675170898,-1.033675789833069,-0.13896822929382324,0.0856279656291008,-0.0017002314561977983
1706236782014684865,0.14264215528965,9.745597839355469,-1.03058135509491,-0.13802844285964966,0.08457281440496445,0.0036789942532777786
1706236782025934198,0.1262814998626709,9.738508224487305,-1.0348358154296875,-0.13838839530944824,0.08188322186470032,0.011399672366678715
1706236782034705754,0.13304123282432556,9.744930267333984,-1.0481368303298952,-0.1401536464691162,0.07857782393693924,0.020112404599785805
1706236782047035069,0.1388152837753296,9.750368118286133,-1.0648820400238037,-0.14299674332141876,0.07575687766075134,0.027742093428969383
1706236782055244513,0.14615668356418612,9.755763053894045,-1.072228789329529,-0.14613938331604004,0.07429177314043045,0.03198358416557312
1706236782065149309,0.13242076337337497,9.75538730621338,-1.0526469945907595,-0.1485072523355484,0.07471514493227005,0.03131195157766342
1706236782075154235,0.13019901514053345,9.762476921081545,-1.0454258918762207,-0.1494329422712326,0.07707180082798004,0.026132678613066673
1706236782084758013,0.1357702612876892,9.753337860107422,-1.0306975841522217,-0.14917288720607758,0.0808718353509903,0.01901284232735634
1706236782094941772,0.1388424038887024,9.74789333343506,-1.0188870429992676,-0.14849473536014557,0.08516519516706467,0.013516606763005257
1706236782104979383,0.13369041681289673,9.743192672729492,-1.0189323425292969,-0.1479356586933136,0.0886940062046051,0.012519718147814274
1706236782118012069,0.13452646136283875,9.738820075988771,-1.012275218963623,-0.1476420909166336,0.09027540683746338,0.017029408365488052
1706236782125001902,0.12993097305297852,9.741862297058107,-1.0081151723861697,-0.14764270186424255,0.08931799978017807,0.02600557915866375
1706236782135058180,0.12625831365585327,9.73951816558838,-1.0386064052581787,-0.14802765846252441,0.0861111506819725,0.03699984401464462
1706236782147334680,0.1372884213924408,9.755043029785156,-1.0415058135986328,-0.14889298379421234,0.0817452147603035,0.046869419515132904
1706236782154597420,0.129827156662941,9.773974418640138,-1.049655079841614,-0.15012234449386597,0.07787527143955231,0.05257127061486244
1706236782164753106,0.1314007490873337,9.758419036865234,-1.0489050149917605,-0.1513490080833435,0.07631447911262512,0.052351221442222595
1706236782174817198,0.12910759449005127,9.758063316345217,-1.0381473302841189,-0.1522529125213623,0.07810183614492416,0.046612225472927094
1706236782185128698,0.1345420479774475,9.756680488586428,-1.0163694620132449,-0.15275393426418304,0.08266167342662811,0.03785010427236557
1706236782195628235,0.13289836049079895,9.745849609375,-1.0111396312713623,-0.15288788080215454,0.08811129629611969,0.02979966066777706
1706236782204623254,0.11015672981739044,9.739448547363281,-1.0008801221847536,-0.15279020369052887,0.09228852391242981,0.025980008766055107
1706236782215082606,0.11785760521888733,9.741808891296388,-0.9913909435272217,-0.1529632806777954,0.09359631687402725,0.028259485960006714
1706236782225573513,0.12864769995212558,9.748245239257812,-1.0018746852874756,-0.15410993993282318,0.09159781783819199,0.03628618270158768
1706236782235620180,0.13378161191940308,9.75940799713135,-1.0153539180755615,-0.1562892198562622,0.0872911810874939,0.047741442918777466
1706236782246705087,0.11572047322988512,9.760078430175781,-1.0336960554122927,-0.1586374044418335,0.08272721618413925,0.05901150777935982
1706236782254689809,0.13706608116626742,9.769238471984865,-1.0597178936004639,-0.16018706560134888,0.08004139363765717,0.06622088700532913
1706236782264671050,0.13011167943477633,9.772934913635256,-1.049549460411072,-0.16050225496292114,0.08053115755319595,0.06650751084089279
1706236782274803420,0.13150571286678317,9.770194053649904,-1.0379580259323122,-0.15956471860408783,0.08429016172885895,0.059323862195014954
1706236782285732309,0.1271035820245743,9.761092185974123,-1.0426841974258425,-0.15767914056777954,0.09027663618326187,0.047035131603479385
1706236782295375846,0.13357087969779968,9.7671594619751,-1.0325928926467898,-0.15546731650829315,0.09667297452688217,0.03385481610894203
1706236782305434161,0.13305537402629855,9.772877693176271,-1.031675696372986,-0.15355350077152252,0.10169542580842972,0.023764899000525475
1706236782316169717,0.1337847858667374,9.770889282226562,-1.0391904115676882,-0.15222132205963135,0.10449200123548508,0.01897965371608734
1706236782325149791,0.13058844208717346,9.758071899414062,-1.0438954830169678,-0.1514264941215515,0.10525939613580704,0.019421501085162163
1706236782335492402,0.1385992169380188,9.768193244934084,-1.039560675621033,-0.15100251138210297,0.10458848625421524,0.023148681968450546
1706236782346842754,0.13172289729118347,9.76278305053711,-1.0437051057815554,-0.15075019001960754,0.10301879793405533,0.02758854255080223
1706236782354986365,0.1401820927858353,9.775287628173828,-1.0501159429550173,-0.15046295523643494,0.10112915933132172,0.03073437325656414
1706236782365351420,0.14605462551116943,9.778358459472656,-1.0737344026565554,-0.1499362587928772,0.09966548532247543,0.03146614134311676
1706236782375398346,0.132563978433609,9.78103542327881,-1.0595103502273562,-0.1489672064781189,0.09941869229078293,0.02927304618060589
1706236782384936013,0.1381383985280991,9.78204345703125,-1.0667511224746706,-0.1475675106048584,0.10088261216878891,0.024281220510601997
1706236782395007587,0.1385405957698822,9.77767086029053,-1.0601421594619753,-0.14611847698688507,0.10392831265926361,0.01752731390297413
1706236782405398735,0.14144322276115417,9.771236419677734,-1.0521965026855469,-0.14504940807819366,0.10775184631347656,0.010741588659584522
1706236782415068476,0.14179205894470215,9.760102272033693,-1.0559208393096924,-0.14446282386779785,0.11108215153217316,0.005692983046174049
1706236782425306698,0.1441314369440079,9.757388114929201,-1.0570784807205202,-0.14414405822753906,0.1125698983669281,0.0034897339064627886
1706236782435479143,0.1433808356523514,9.758082389831545,-1.056565284729004,-0.14378049969673157,0.11133411526679993,0.00411794101819396
1706236782445527180,0.14325405657291415,9.761778831481935,-1.067615032196045,-0.14316502213478088,0.107465960085392,0.006541243754327297
1706236782465402124,0.13977359235286715,9.787468910217287,-1.064472556114197,-0.14148226380348206,0.09710928052663803,0.010711672715842724
1706236782475892587,0.14625251293182373,9.781737327575685,-1.0706493854522705,-0.1409652829170227,0.09437469393014908,0.01033752504736185
1706236782485044439,0.13817235827445984,9.772952079772951,-1.0638549327850342,-0.14087122678756714,0.0951184555888176,0.008298802189528942
1706236782495181920,0.14405675232410434,9.759759902954102,-1.0570032596588135,-0.1410786360502243,0.09895487874746323,0.00545978220179677
1706236782505799143,0.12563365697860718,9.759749412536623,-1.0456805229187012,-0.14148230850696564,0.10385796427726746,0.003054439788684249
1706236782515499920,0.1321042776107788,9.765180587768555,-1.0594493150711062,-0.1422351598739624,0.10734222084283829,0.0022960638161748648
1706236782524619272,0.12690930068492892,9.760762214660646,-1.049748778343201,-0.14368027448654175,0.10794553905725479,0.003726659808307886
1706236782534615939,0.13024884462356567,9.772933006286623,-1.0509546995162966,-0.14597320556640625,0.10583164542913437,0.0069008697755634785
1706236782545177105,0.13556395471096042,9.756712913513185,-1.0498478412628174,-0.14880503714084625,0.10231614112854004,0.010814483277499676
1706236782555767680,0.13548351824283603,9.75503444671631,-1.045319437980652,-0.15146254003047943,0.09883318096399307,0.014522727578878403
1706236782564647791,0.1341569423675537,9.762776374816896,-1.0492517948150635,-0.15316885709762573,0.09612160921096802,0.017457053065299988
1706236782577230031,0.12885998189449313,9.762442588806154,-1.03517746925354,-0.15355440974235535,0.09428934752941132,0.019500548020005226
1706236782585228439,0.12397977709770203,9.759066581726076,-1.0406225919723513,-0.15293177962303162,0.09329845756292343,0.020954495295882225
1706236782595323994,0.13518725335597995,9.756708145141602,-1.036919951438904,-0.1520853191614151,0.09303829073905945,0.022337043657898903
1706236782605333809,0.13665671646595004,9.750964164733888,-1.0325305461883545,-0.1516338437795639,0.09315036237239838,0.024041607975959778
1706236782615812605,0.13053277134895325,9.76210117340088,-1.0331691503524782,-0.15159030258655548,0.09312409162521362,0.026183530688285828
1706236782624709346,0.12938018143177035,9.764472007751467,-1.0293167829513552,-0.1516442894935608,0.09271205961704254,0.028678691014647484
1706236782634739050,0.13022109866142273,9.755353927612305,-1.0235626697540283,-0.15166842937469482,0.09216541051864624,0.031359486281871796
1706236782644825939,0.12319588661193848,9.757370948791506,-1.0225636959075928,-0.1518014818429947,0.0918644443154335,0.03411373123526573
1706236782655341013,0.1261506974697113,9.76480484008789,-1.0234974622726443,-0.15227477252483368,0.09189695119857788,0.03691941127181053
1706236782665531272,0.13188098371028903,9.759077072143555,-1.0357415676116943,-0.15321169793605804,0.0921807587146759,0.03963547572493553
1706236782675687087,0.13216485083103183,9.767154693603516,-1.0264285802841189,-0.15440641343593597,0.09270161390304565,0.0418100468814373
1706236782695693568,0.13220204412937167,9.762779235839844,-1.0297228097915652,-0.15534885227680206,0.09349186718463898,0.042916957288980484
1706236782695799846,0.12332356721162797,9.771215438842773,-1.0358277559280398,-0.15562592446804047,0.09456779807806015,0.042782437056303024
1706236782705620883,0.13667210936546326,9.772232055664062,-1.0273494720458984,-0.15525886416435242,0.09595402330160141,0.04163521155714989
1706236782715204291,0.13395439088344577,9.761427879333498,-1.0314717292785645,-0.15452849864959717,0.09765107929706573,0.03993643447756767
1706236782725008865,0.13482637703418734,9.744190216064453,-1.0146335363388064,-0.15359587967395782,0.09933072328567505,0.038329944014549255
1706236782735194142,0.14160300791263583,9.750293731689453,-1.017503023147583,-0.15245141088962555,0.1000884547829628,0.0375954769551754
1706236782744708828,0.12376970052719116,9.762749671936037,-1.0121546983718874,-0.15111425518989563,0.09900262951850891,0.038415055721998215
1706236782755738253,0.13188916444778442,9.76109027862549,-1.0194487571716309,-0.14985240995883942,0.09615413099527359,0.04097062349319458
1706236782767873753,0.12070950865745544,9.766470909118654,-1.021547555923462,-0.1492028832435608,0.09279066324234009,0.04468576982617378
1706236782775930661,0.13907349109649658,9.772248268127443,-1.0303096771240234,-0.14959143102169037,0.09047862142324448,0.048372767865657806
1706236782795888550,0.12598013877868652,9.757392883300781,-1.021665334701538,-0.1508965790271759,0.0902061015367508,0.050750963389873505
1706236782795962550,0.14166295528411865,9.766839027404787,-1.0307902097702029,-0.15246349573135376,0.09191878139972687,0.05108730122447014
1706236782807152439,0.13175886869430542,9.755332946777344,-1.0193324089050293,-0.1535113900899887,0.09463364630937576,0.04952375218272209
1706236782815717976,0.12392564862966539,9.755670547485352,-1.0103991031646729,-0.15361131727695465,0.09704345464706421,0.04698256030678749
1706236782824762087,0.13468709588050842,9.771534919738771,-1.0070488452911377,-0.15297771990299225,0.0981893539428711,0.04487414285540581
1706236782834903457,0.1284310221672058,9.768506050109865,-1.0031694173812868,-0.15222148597240448,0.09799548983573914,0.04456549510359764
1706236782845068920,0.13005112111568454,9.759729385375977,-1.001787304878235,-0.1518050879240036,0.09722678363323212,0.04673204571008682
1706236782855610568,0.12764449417591098,9.752650260925295,-1.0078849792480469,-0.15187294781208038,0.09662750363349915,0.051049716770648956
1706236782865428883,0.12727144360542297,9.762082099914553,-1.0008579492568972,-0.1523885875940323,0.09624001383781433,0.05638393014669418
1706236782874898550,0.12316900491714478,9.76310920715332,-1.0068137645721436,-0.1532514989376068,0.09573225677013397,0.06135096400976181
1706236782885211642,0.11908897757530212,9.776621818542482,-1.0127948522567751,-0.15440084040164948,0.09511685371398926,0.06487344205379486
1706236782894887476,0.13127228617668152,9.782328605651857,-1.0063564777374268,-0.15581609308719635,0.09500306099653244,0.06639254838228226
1706236782905030420,0.121794231235981,9.771867752075195,-1.0093588829040527,-0.1573331505060196,0.09621071070432663,0.06593575328588486
1706236782915347031,0.1205480694770813,9.76711654663086,-0.9948514699935913,-0.15863819420337677,0.09898775070905685,0.06417674571275711
1706236782934076772,0.12389669567346574,9.779285430908203,-0.9916886687278749,-0.15956415235996246,0.10260835289955139,0.06231158599257469
1706236782937810476,0.12800610065460205,9.769488334655763,-0.9874034523963929,-0.16014890372753143,0.10593205690383911,0.061670731753110886
1706236782944742031,0.1265885829925537,9.757693290710451,-0.9855110049247743,-0.16038435697555542,0.10809626430273056,0.06314745545387268
1706236782956065124,0.1277438998222351,9.747193336486818,-0.9783502817153931,-0.16016536951065063,0.10848160088062286,0.06681810319423676
1706236782965098809,0.12001830339431763,9.755652427673342,-0.9848932027816772,-0.1595054417848587,0.10658008605241776,0.07203158736228943
1706236782975659161,0.1255501359701157,9.778596878051758,-0.9880188703536987,-0.1586836874485016,0.10253758728504181,0.07769183069467545
1706236782985635920,0.11435534060001373,9.77016353607178,-0.9885488152503968,-0.15814393758773804,0.09774722903966904,0.08252955228090286
1706236782995404587,0.1113758757710457,9.767108917236328,-0.9839359521865845,-0.15832538902759552,0.09427227824926376,0.08553536981344223
1706236783005105346,0.11581041663885118,9.763051986694336,-0.9895400404930116,-0.15955188870429993,0.09337694942951202,0.08641079068183899
1706236783015948883,0.10655876249074937,9.76271724700928,-0.9808290600776673,-0.16185766458511353,0.09478133171796799,0.08561334013938904
1706236783035773216,0.11188507825136186,9.7660608291626,-0.9685298204421997,-0.16824911534786224,0.09932989627122879,0.08276613801717758
1706236783045002068,0.10824783146381378,9.766394615173342,-0.9623616933822632,-0.171278178691864,0.10048969835042953,0.08273585885763168
1706236783055170513,0.125862717628479,9.767778396606445,-0.9776695370674134,-0.1734662652015686,0.10068495571613312,0.0845872312784195
1706236783065720253,0.12112435698509216,9.779587745666506,-0.9766265749931337,-0.17429646849632263,0.10038596391677856,0.08811956644058228
1706236783080195698,0.106432244181633,9.774176597595217,-0.9680062532424927,-0.17348167300224304,0.10030442476272583,0.09221486747264862
1706236783087869994,0.10432207584381104,9.772814750671388,-0.9623007774353027,-0.1714785099029541,0.10105083137750626,0.09566161781549454
1706236783094668161,0.10397047549486162,9.76102924346924,-0.9725952744483949,-0.16955716907978058,0.10265101492404938,0.09798702597618103
1706236783105565494,0.10196428000926971,9.75830078125,-0.9605652689933778,-0.16900883615016937,0.10435805469751358,0.09937456250190735
1706236783115491846,0.11055415123701097,9.768796920776367,-0.9828941226005555,-0.17031456530094147,0.10510704666376114,0.10012730956077576
1706236783125434309,0.1063799113035202,9.770772933959961,-0.9775195121765137,-0.17295576632022858,0.10437863320112228,0.10027900338172913
1706236783135141661,0.10530984401702881,9.781965255737305,-0.9854859709739686,-0.17585185170173645,0.1027064248919487,0.09952570497989655
1706236783145069198,0.12263521552085876,9.772841453552248,-0.9806199073791504,-0.17798413336277008,0.10131827741861343,0.0975760743021965
1706236783154944235,0.12369011342525482,9.772496223449709,-0.9841607809066772,-0.17860665917396545,0.10122495144605637,0.09456070512533188
1706236783164841087,0.12896989285945895,9.769145965576172,-0.9867177605628968,-0.17720063030719757,0.1025274246931076,0.09103664010763168
1706236783175497142,0.12515783309936523,9.756647109985352,-0.9898821115493774,-0.1736914962530136,0.10442189872264862,0.08763715624809265
1706236783184856512,0.13318006694316867,9.773162841796875,-0.9813232421875,-0.16866515576839447,0.10574950277805328,0.0847831666469574
1706236783194949494,0.12765437364578247,9.764062881469727,-0.9872758984565736,-0.16315099596977234,0.10574931651353836,0.08271370083093643
1706236783204667105,0.12198218703269958,9.761025428771974,-0.9844518303871156,-0.15822835266590118,0.10446126013994217,0.08156228065490723
1706236783226335179,0.1269870847463608,9.771158218383789,-0.9868564009666444,-0.1536116749048233,0.10066328942775726,0.08159690350294113
1706236783234932309,0.12003823369741441,9.775225639343263,-1.0005848407745361,-0.154511958360672,0.09986867755651474,0.0820932537317276
1706236783244746438,0.12009292840957642,9.775537490844727,-1.001535415649414,-0.15679803490638733,0.10052575170993805,0.08212744444608688
1706236783254915031,0.13328225910663608,9.779938697814943,-1.0083373785018923,-0.15943406522274017,0.10244085639715195,0.0809721127152443
1706236783265481642,0.13575425744056702,9.771164894104006,-1.0101313591003418,-0.1613856703042984,0.10504892468452454,0.07818014174699783
1706236783275169290,0.12997311353683472,9.783628463745117,-1.0003699064254763,-0.16178348660469055,0.10768301039934158,0.07391202449798584
1706236783285548327,0.14075697958469394,9.771826744079592,-0.9986465573310853,-0.16029511392116547,0.10980217158794403,0.06904327869415283
1706236783295610216,0.1350314170122147,9.778255462646484,-1.0070087909698486,-0.15728771686553955,0.1111360639333725,0.06486300379037857
1706236783305312494,0.14243048429489136,9.771505355834961,-0.9937397241592407,-0.15352189540863037,0.11163047701120377,0.062377993017435074
1706236783314989346,0.13674856722354892,9.752264976501467,-0.9971169829368592,-0.1497836709022522,0.11125221103429794,0.061905741691589355
1706236783325107494,0.1413344591856003,9.765095710754396,-1.00187623500824,-0.1466788798570633,0.10978388786315918,0.06318344920873642
1706236783335058123,0.11952473223209381,9.773882865905763,-1.0162420272827148,-0.14463011920452118,0.10708530992269516,0.06542301177978516
1706236783345031272,0.14033925533294678,9.769152641296388,-1.0208992958068848,-0.14398473501205444,0.10371136665344238,0.06730207055807114
1706236783355305105,0.12684966623783114,9.789731025695803,-1.0191711187362673,-0.14485585689544678,0.10090067982673645,0.06740272045135498
1706236783364659494,0.13753087818622592,9.786026000976562,-1.02842652797699,-0.1468394696712494,0.09995078295469284,0.06496939063072205
1706236783375483105,0.138078048825264,9.774538993835451,-1.024813532829285,-0.14911240339279175,0.10157103836536407,0.060262467712163925
1706236783394897735,0.14041781425476074,9.77083492279053,-1.018963932991028,-0.15126200020313263,0.10943372547626495,0.04854162037372589
1706236783400583679,0.14109128713607788,9.764387130737305,-1.0076924562454226,-0.1504220813512802,0.11213956028223038,0.04431356117129326
1706236783414971586,0.13741861283779147,9.749566078186037,-1.0091063976287842,-0.14861099421977997,0.1122799962759018,0.042650602757930756
1706236783423948920,0.1352587342262268,9.758671760559084,-0.9985283017158509,-0.14646396040916443,0.10963713377714157,0.043940626084804535
1706236783434264160,0.13669338822364807,9.767121315002443,-1.008665204048157,-0.14470915496349335,0.1048073023557663,0.04781661555171013
1706236783443958160,0.1451590657234192,9.769152641296388,-1.020639181137085,-0.14382819831371307,0.09923893213272095,0.053134020417928696
1706236783453904827,0.13905099034309387,9.768160820007326,-1.026904821395874,-0.1437603235244751,0.09479031711816788,0.05807942524552345
1706236783463844512,0.1410227566957474,9.757352828979492,-1.0280338525772097,-0.14403562247753143,0.09273029118776321,0.06072181090712547
1706236783474603901,0.1350618600845337,9.775918960571289,-1.030336856842041,-0.14424194395542145,0.09310757368803024,0.05992694944143295
1706236783484650457,0.14090509712696078,9.776247978210451,-1.0389782190322878,-0.14429405331611633,0.095157690346241,0.05585094541311264
1706236783494495586,0.13348788022994995,9.772520065307617,-1.029515624046326,-0.14433017373085022,0.09811583161354065,0.04965248331427574
1706236783753866179,0.12148221582174303,9.753290176391602,-1.00100314617157,-0.16836108267307281,0.08988040685653687,0.05116352066397667
1706236783764052290,0.11995431035757066,9.75358772277832,-0.9828731417655946,-0.16781044006347656,0.0895058885216713,0.05393005535006523
1706236783774181457,0.1130269467830658,9.754305839538576,-1.0114182233810427,-0.16616463661193848,0.08851230144500732,0.0578019954264164
1706236783784616531,0.12421572953462602,9.753621101379396,-1.007880687713623,-0.1643480509519577,0.08746245503425598,0.06231965124607086
1706236783798113308,0.12518806755542758,9.753307342529297,-1.0144921541213991,-0.1630755513906479,0.08673527091741562,0.06624679267406464
1706236783804188679,0.11921891570091248,9.759724617004396,-1.0184396505355837,-0.16245853900909424,0.08648419380187988,0.06815600395202637
1706236783813958012,0.12214117497205736,9.747548103332521,-1.009573817253113,-0.16222402453422546,0.08669716119766235,0.06733741611242294
1706236783824595012,0.12737956643104553,9.75765895843506,-0.999481499195099,-0.16211280226707458,0.08720275014638901,0.06427016109228134
1706236783834531438,0.11374329775571825,9.754321098327638,-1.0068418979644775,-0.16197024285793304,0.08772828429937363,0.06048198044300079
1706236783844262901,0.12640492618083957,9.757998466491701,-0.9833781719207764,-0.16178089380264282,0.08811725676059723,0.057797688990831375
1706236783855669734,0.12271886318922044,9.753272056579592,-0.9953025579452515,-0.16164177656173706,0.0884040892124176,0.057541217654943466
1706236783864968623,0.12087569385766984,9.749217033386232,-0.9908386468887329,-0.16157212853431702,0.08862321823835373,0.060101669281721115
1706236783873946345,0.11975467205047607,9.770160675048828,-0.9934190511703491,-0.161525160074234,0.08873133361339569,0.06478676199913025
1706236783884162012,0.12088768184185028,9.769853591918945,-1.00921630859375,-0.16154338419437408,0.08892190456390381,0.07008209079504013
1706236783904702253,0.12344161421060564,9.758005142211914,-0.9952187538146973,-0.16210709512233734,0.09132201969623566,0.07614476978778839
1706236783916183734,0.1299126893281937,9.767782211303711,-1.0018709897994997,-0.16254755854606628,0.09320574998855591,0.07573097199201584
1706236783923938568,0.11414868384599687,9.773221969604492,-0.9886787533760072,-0.16274161636829376,0.09479854255914688,0.07391295582056046
1706236783933988179,0.12781803309917453,9.764437675476076,-0.985134780406952,-0.16250963509082794,0.09611039608716965,0.07191251963376999
1706236783944053105,0.11620202660560608,9.756999969482422,-0.9834375977516175,-0.16200123727321625,0.09738314151763916,0.07091660797595978
1706236783954080364,0.12958678603172302,9.761730194091797,-0.9914193153381348,-0.1614924967288971,0.09846736490726471,0.07166522741317749
1706236783963936382,0.12492655217647552,9.76882553100586,-1.000460982322693,-0.1610950529575348,0.09894338995218277,0.07395800203084946
1706236783974685901,0.1238454356789589,9.78134536743164,-1.020351052284241,-0.16070377826690674,0.09880729764699936,0.0765313133597374
1706236783983902993,0.13084673881530762,9.770907402038576,-1.0273323059082031,-0.16017474234104156,0.09874033182859421,0.07747446000576019
1706236783993847623,0.13349589705467224,9.78032970428467,-1.0211749076843262,-0.15941151976585388,0.0995616465806961,0.07513872534036636
1706236784005478753,0.13958655297756198,9.77495002746582,-1.0230609178543093,-0.15824922919273376,0.10155953466892242,0.06918630748987198
1706236784016244845,0.13866421580314636,9.773244857788086,-1.0253040790557861,-0.15645696222782135,0.10436761379241943,0.060899704694747925
1706236784024074382,0.11539910733699799,9.760716438293459,-1.0022006034851074,-0.1540626883506775,0.10715945065021515,0.05249687656760216
1706236784034894512,0.13956753909587863,9.75633430480957,-1.0017342567443848,-0.15168267488479614,0.10885947197675705,0.04629770666360855
1706236784043789401,0.12775908410549167,9.766788482666016,-0.9965593814849854,-0.150163471698761,0.10855899751186371,0.04407884180545807
1706236784055595160,0.1301298439502716,9.765810012817383,-1.006147861480713,-0.1498519778251648,0.10615165531635284,0.04635869339108467
1706236784063988049,0.1362448185682297,9.776317596435547,-1.0245914459228516,-0.1504802107810974,0.10260194540023804,0.05192798003554344
1706236784075182456,0.11987799406051636,9.778343200683594,-1.0288621187210085,-0.1515369713306427,0.09949079155921936,0.05811839923262596
1706236784085130845,0.14262932538986206,9.778674125671388,-1.0389910936355593,-0.15258365869522095,0.0982266217470169,0.061894457787275314
1706236784108921067,0.13601191341876986,9.786754608154297,-1.0238176584243777,-0.15345889329910278,0.10276543349027634,0.05601714178919792
1706236784114437975,0.14199332892894748,9.787440299987795,-1.0261555910110476,-0.15290731191635132,0.10738950222730637,0.04804731532931328
1706236784125495642,0.13526092469692233,9.780658721923828,-1.0205698013305664,-0.15169337391853333,0.11228056252002716,0.04022353142499924
1706236784133906290,0.1310151964426041,9.769832611083984,-1.002021074295044,-0.15002499520778656,0.11640128493309021,0.03518513962626457
1706236784144191438,0.1330679953098297,9.758718490600586,-1.0151509046554568,-0.1483895629644394,0.1186700314283371,0.03441347926855087
1706236784154757697,0.13086031377315524,9.766494750976562,-1.0262174606323242,-0.1473930925130844,0.1181846484541893,0.03781237453222275
1706236784164283438,0.13580818474292758,9.789813995361328,-1.0283384323120117,-0.14735785126686096,0.11491338163614273,0.043584953993558884
1706236784174661253,0.14492368698120117,9.782390594482422,-1.0356596708297732,-0.14807334542274475,0.11027844995260239,0.048967935144901276
1706236784184022049,0.14585100114345553,9.781042098999023,-1.0376348495483398,-0.14881481230258942,0.10655026137828827,0.05160548910498619
1706236784194546679,0.138312503695488,9.784068107604982,-1.033569097518921,-0.14873544871807098,0.10534349083900452,0.05052555724978447
1706236784203909753,0.14077441394329074,9.770557403564453,-1.0307097434997559,-0.14749981462955475,0.10675914585590363,0.04634253308176994
1706236784214916993,0.12926323711872104,9.759393692016602,-1.029755473136902,-0.14556793868541718,0.10955365747213364,0.040806859731674194
1706236784224648475,0.13274078071117404,9.77324104309082,-1.0177795886993408,-0.1439020037651062,0.11183752864599228,0.03596417233347893
1706236784244182012,0.12499755620956421,9.770178794860842,-1.009054780006409,-0.1443890929222107,0.11045641452074051,0.03416758030653
1706236784266439753,0.12482736259698869,9.759388923645021,-1.009599804878235,-0.1497630923986435,0.10487304627895355,0.044228024780750275
1706236784274156697,0.13688194751739502,9.76546859741211,-1.026418924331665,-0.15303680300712585,0.10298002511262894,0.05099276453256607
1706236784284047753,0.12725654244422913,9.764101028442383,-1.0166319608688357,-0.15571828186511993,0.10186941921710968,0.056470371782779694
1706236784294140604,0.12677137553691867,9.772244453430178,-1.0366668701171875,-0.15716783702373505,0.10112901031970978,0.05911051481962204
1706236784304216530,0.13202188909053805,9.780994415283203,-1.02297043800354,-0.15730136632919312,0.10064671188592911,0.05829666554927826
1706236784314655734,0.13011524081230164,9.773233413696289,-1.0137205123901367,-0.15652765333652496,0.10077066719532013,0.05460517108440399
1706236784323885567,0.12472166866064073,9.764434814453125,-1.006050229072571,-0.1553783267736435,0.1018192321062088,0.0497719943523407
1706236784334086530,0.12009938061237335,9.760041236877443,-0.9981507658958436,-0.1543971300125122,0.1034395843744278,0.04613027349114418
1706236784344622382,0.12120351940393449,9.755292892456055,-0.9967174530029297,-0.15414214134216309,0.10460381954908371,0.0455702468752861
1706236784353925290,0.1252000331878662,9.75936794281006,-1.0074297189712527,-0.15494774281978607,0.10428930073976517,0.04866175353527069
1706236784364020493,0.12380255013704301,9.762752532958984,-1.0111166238784792,-0.15664003789424896,0.10219275206327438,0.054354291409254074
1706236784374045901,0.12374013662338257,9.76509761810303,-1.0057774782180788,-0.15861333906650543,0.09895876795053482,0.060491159558296204
1706236784384565290,0.1230565831065178,9.763084411621094,-1.006374001502991,-0.16023306548595428,0.09578655660152435,0.0650191605091095
1706236784393993715,0.11786075681447984,9.744178771972656,-1.0183486938476562,-0.16118642687797546,0.09362394362688065,0.06693454086780548
1706236784406837771,0.12736213207244873,9.752237319946289,-1.0044591426849365,-0.16154363751411438,0.0924994945526123,0.06630491465330124
1706236784414935752,0.12144769728183746,9.759335517883303,-0.9988349080085756,-0.16153158247470856,0.09171469509601593,0.06396922469139099
1706236784424554197,0.11494422703981401,9.757987022399904,-1.0028951168060303,-0.16135242581367493,0.09075983613729477,0.06132039055228233
1706236784434574882,0.11921191960573198,9.747886657714844,-1.0013471841812136,-0.16127176582813263,0.08972761780023575,0.05972793698310852
1706236784444599678,0.12176910042762756,9.758019447326662,-1.0101474523544314,-0.16157738864421844,0.08886510133743286,0.05978400632739067
1706236784454412438,0.12406934797763824,9.759700775146484,-1.0115504264831543,-0.16227157413959503,0.08826939016580582,0.06106279790401459
1706236784464432993,0.12253278493881226,9.75564479827881,-1.0102951526641846,-0.16299580037593842,0.08804874867200851,0.0625145435333252
1706236784474569475,0.12304785102605821,9.766429901123047,-1.0052877664566042,-0.16333357989788055,0.08835738897323608,0.06319830566644669
