Timestamp,IMU_Raw_x,IMU_Raw_y,IMU_Raw_z,IMU_Linear_Acc_X,IMU_Linear_Acc_Y,IMU_Linear_Acc_Z
1706236707885152817,0.11230355501174927,9.758995056152344,-1.0846025943756104,-0.0007570656598545611,-0.005988844204694033,0.02715996839106083
1706236707895790187,0.11825174838304521,9.753971099853516,-1.106854557991028,-0.0015136835863813758,-0.0038219194393604994,0.03181338682770729
1706236707905080687,0.11022627353668213,9.752595901489258,-1.1089850664138796,-0.002804767107591033,-0.0003698013024404645,0.03284153342247009
1706236707915317687,0.11433319747447968,9.741517066955568,-1.116777539253235,-0.004289890173822641,0.0036033112555742264,0.02945554628968239
1706236707933457668,0.1198011189699173,9.749622344970703,-1.1273202896118164,-0.005563690327107906,0.0069663431495428085,0.021961908787488937
1706236707935729057,0.11821863055229187,9.738133430480959,-1.1202874183654785,-0.00627471785992384,0.008705667220056057,0.011709626764059067
1706236707945717057,0.121269129216671,9.737834930419922,-1.1367321014404297,-0.006153345573693514,0.008379492908716202,0.000583719345740974
1706236707954758076,0.12429880350828172,9.738859176635742,-1.13218092918396,-0.005132587626576424,0.006153821013867855,-0.009657265618443489
1706236707965000020,0.1175651177763939,9.744230270385742,-1.111159682273865,-0.003395834704861045,0.002693501766771078,-0.017788680270314217
1706236707975771965,0.11361228674650194,9.74252700805664,-1.10135817527771,-0.0013914417941123247,-0.0009616177994757891,-0.022870425134897232
1706236707984776020,0.1283915638923645,9.757057189941406,-1.0976325273513796,0.0002662711194716394,-0.0036905251909047365,-0.02398764342069626
1706236707995059039,0.13062205910682678,9.748965263366701,-1.107096076011658,0.0012627425603568554,-0.004630594048649073,-0.02079521305859089
1706236708005504057,0.134765699505806,9.750309944152834,-1.0962280035018923,0.00195856811478734,-0.003486004890874028,-0.014213144779205322
1706236708015577409,0.14634464681148532,9.754018783569336,-1.0974813699722292,0.0031407801434397697,-0.0007099784561432898,-0.0061812493950128555
1706236708025618761,0.1322428584098816,9.745895385742188,-1.086562156677246,0.005461934022605419,0.002724419580772519,0.0013743254821747541
1706236708035685131,0.1398012340068817,9.7381067276001,-1.0748897790908816,0.008963681757450104,0.005721816793084145,0.007430141791701317
1706236708045346946,0.15063764154911044,9.748227119445803,-1.064526438713074,0.013039828278124332,0.007331778760999441,0.012153137475252151
1706236708055501520,0.13969221711158752,9.7536096572876,-1.0505781173706055,0.016980651766061783,0.007169579155743122,0.016604652628302574
1706236708065438409,0.1537686735391617,9.750561714172365,-1.035408139228821,0.020392755046486855,0.005770144984126091,0.022114967927336693
1706236708075696094,0.1378809064626694,9.74889659881592,-1.0381227731704714,0.023125311359763145,0.004212492145597935,0.029657116159796715
1706236708084752039,0.14348046481609347,9.755992889404297,-1.0405107736587527,0.025065980851650238,0.0033537165727466345,0.03928175941109657
1706236708095012520,0.1387067884206772,9.76035785675049,-1.0379604101181032,0.026045484468340874,0.0035546347498893738,0.04986012727022171
1706236708105164020,0.13572540879249573,9.758310317993164,-1.015233397483826,0.02593522146344185,0.004870260134339333,0.05968685448169708
1706236708115695668,0.12819419801235202,9.75692653656006,-1.0120280981063845,0.024741489440202713,0.007117947563529015,0.06769939512014389
1706236708126332798,0.1348020285367966,9.763351440429688,-1.0126589536666872,0.02257261611521244,0.009835840202867985,0.07405383884906769
1706236708135223335,0.15419188141822815,9.757627487182617,-1.0175034999847412,0.019818395376205444,0.012462557293474674,0.07945968955755234
1706236708144976372,0.15075261890888217,9.77145767211914,-1.0128430128097536,0.017461789771914482,0.014627120457589626,0.08425626158714294
1706236708163687891,0.15295399725437167,9.759292602539062,-1.008210062980652,0.016783950850367546,0.016283005475997925,0.08828852325677872
1706236708165662428,0.15523298084735873,9.764373779296875,-1.0104364156723025,0.01849256083369255,0.0175695288926363,0.09137147665023804
1706236708175807150,0.14355055987834933,9.758606910705568,-1.0013675689697266,0.02221880853176117,0.018534334376454353,0.0935932993888855
1706236708185992187,0.13238330185413363,9.762978553771974,-0.9891045093536377,0.0266337301582098,0.019073117524385452,0.09535949677228928
1706236708195240687,0.14381746947765353,9.769385337829592,-0.9916741251945497,0.029957575723528862,0.01915150135755539,0.0973653495311737
1706236708205109076,0.1500133723020554,9.75552272796631,-0.9810037612915039,0.030940024182200432,0.018963497132062912,0.10031798481941223
1706236708214832742,0.13224248588085177,9.762267112731935,-0.9774811267852783,0.029627600684762,0.01873110979795456,0.10454811900854111
1706236708225235465,0.13813893496990207,9.765332221984865,-0.9940544366836548,0.02695433795452118,0.01848560757935047,0.10983013361692429
1706236708235734279,0.12916611135005954,9.770391464233398,-0.9981085658073426,0.023801101371645927,0.018270835280418396,0.11525173485279083
1706236708244776539,0.13650909066200256,9.76970100402832,-0.9993398785591127,0.02066701650619507,0.01836645044386387,0.11933943629264832
1706236708256595039,0.13744133710861206,9.767344474792482,-0.9924927949905396,0.017878364771604538,0.019088050350546837,0.12084698677062988
1706236708264926835,0.1280231475830078,9.780811309814453,-0.9838007688522339,0.015738554298877716,0.02050805278122425,0.11966870725154877
1706236708274928983,0.13002899289131165,9.788598060607912,-0.9948813319206239,0.014359924010932446,0.022584393620491028,0.11695273965597153
1706236708285495020,0.13856832683086398,9.782164573669435,-0.9743647575378418,0.013551605865359306,0.02542180009186268,0.11433068662881851
1706236708295302205,0.1362115442752838,9.774044990539553,-0.971095383167267,0.013126401230692863,0.029013438150286674,0.11316894739866257
1706236708305381372,0.1259769052267075,9.777416229248047,-0.9614628553390503,0.013081871904432774,0.03277049958705902,0.11437150090932846
1706236708315436483,0.13950403034687045,9.771682739257812,-0.9779914021492006,0.013340099714696407,0.03568112850189209,0.11819597333669662
1706236708326778224,0.13109305500984192,9.774394989013672,-0.9805092811584473,0.01367795467376709,0.03695271164178848,0.12385127693414688
1706236708335165779,0.13281524181365967,9.78078365325928,-0.9728971719741821,0.013942364603281021,0.03646311163902283,0.12959913909435272
1706236708345333150,0.1360902190208435,9.786190986633303,-0.981704592704773,0.0140850143507123,0.03485981374979019,0.1336997151374817
1706236708355452557,0.13706061244010925,9.787221908569336,-0.9904673099517822,0.014139799401164055,0.03330833837389946,0.13524317741394043
1706236708365595002,0.1299968957901001,9.788222312927248,-0.9908609390258789,0.014227185398340225,0.032905083149671555,0.13412296772003174
1706236708375154187,0.1136489436030388,9.794619560241701,-0.9775304198265077,0.014292791485786438,0.03415564447641373,0.1308145821094513
1706236708392614779,0.10745619982481004,9.790210723876953,-0.9759597778320312,0.013761799782514572,0.03689324110746384,0.12646877765655518
1706236708394914946,0.11634635925292969,9.781770706176758,-0.9879888892173768,0.011752239428460598,0.0404353067278862,0.12266454100608826
1706236708405169613,0.10802818834781647,9.78045654296875,-0.9954448938369751,0.007874706760048866,0.04371944069862366,0.12045983970165253
1706236708414921039,0.11491926759481431,9.778088569641115,-1.0037502050399782,0.002696321113035083,0.045622557401657104,0.11963777989149094
1706236708431787761,0.12027718871831895,9.780464172363281,-1.0064404010772705,-0.00256155151873827,0.04549887031316757,0.1189800351858139
1706236708439712501,0.12426403164863586,9.769670486450195,-1.013911843299866,-0.006545907352119684,0.043461114168167114,0.11718107014894485
1706236708445468835,0.11260170489549638,9.780803680419922,-1.0035470724105837,-0.008286513388156891,0.040172748267650604,0.11361826211214066
1706236708457309057,0.11185412108898163,9.771339416503906,-0.9996352791786195,-0.007742740213871002,0.03650038689374924,0.10870987176895142
1706236708465293038,0.11768192052841187,9.775381088256836,-0.9994046688079834,-0.005864569451659918,0.03324423357844353,0.10376909375190735
1706236708475847650,0.1138899028301239,9.779430389404297,-0.9959835410118104,-0.003894965397194028,0.030926594510674477,0.1002974808216095
1706236708485852872,0.11015684902667999,9.777091979980469,-1.0144381523132324,-0.002667559776455164,0.029767606407403946,0.0991043969988823
1706236708495889150,0.12131552398204803,9.782506942749023,-1.0257244110107422,-0.0024570105597376823,0.029768871143460274,0.09973127394914627
1706236708507940501,0.11471229046583177,9.77103042602539,-1.028705716133118,-0.0030426131561398506,0.030698638409376144,0.10054263472557068
1706236708515038594,0.10379813611507416,9.768343925476076,-1.0438623428344727,-0.003939385991543531,0.03200746700167656,0.09960980713367462
1706236708526377631,0.11295879632234575,9.767348289489748,-1.0539971590042116,-0.004877390339970589,0.03288014978170395,0.09567219018936157
1706236708535099668,0.10298008471727373,9.772717475891115,-1.037830471992493,-0.005942825693637133,0.03263331204652786,0.0885704755783081
1706236708545452890,0.10694989562034607,9.775423049926758,-1.040558695793152,-0.007283640559762716,0.031215840950608253,0.07941719144582748
1706236708555814316,0.10311653465032579,9.763951301574709,-1.0408276319503786,-0.008923165500164032,0.029223553836345673,0.07032890617847443
1706236708565967575,0.10724192112684251,9.763607025146484,-1.0317151546478271,-0.0107408557087183,0.027313048020005226,0.06344546377658844
1706236708574861168,0.10839251428842546,9.77107048034668,-1.0456883907318115,-0.01246585976332426,0.025722920894622803,0.05996829271316528
1706236708585590650,0.09878795593976976,9.766343116760256,-1.043211340904236,-0.013784614391624928,0.02444331906735897,0.05977507680654526
1706236708595365094,0.10979658365249634,9.749453544616701,-1.0366135835647585,-0.01456543616950512,0.023430535569787025,0.06165630742907524
1706236708605852427,0.11272844672203064,9.751490592956545,-1.0515823364257812,-0.014852049760520458,0.022362083196640015,0.06408470124006271
1706236708615255057,0.100688673555851,9.758249282836914,-1.0523910522460938,-0.014654631726443768,0.02065015397965908,0.06581202894449234
1706236708625467557,0.09742604196071625,9.770752906799318,-1.0494945049285889,-0.014097128994762897,0.018138708546757698,0.06601033359766006
1706236708635930501,0.11077256500720978,9.754215240478516,-1.0547488927841189,-0.013626305386424065,0.015527070499956608,0.06444192677736282
1706236708644943761,0.11331614851951599,9.752888679504396,-1.0603792667388916,-0.013581630773842335,0.013721564784646034,0.06150088459253311
1706236708656825446,0.09942305088043213,9.764019012451172,-1.0633575916290283,-0.013766920194029808,0.012982026673853397,0.05782368779182434
1706236708665051298,0.1055326908826828,9.759965896606445,-1.0614268779754639,-0.013840433210134506,0.013021816499531269,0.053926192224025726
1706236708676233927,0.10992940515279771,9.750187873840334,-1.0698865652084353,-0.013776538893580437,0.013503951020538807,0.05016832426190376
1706236708685059816,0.10754395276308061,9.749858856201172,-1.0667126178741455,-0.01366446167230606,0.01401344034820795,0.04677895829081535
1706236708695311464,0.11339758336544037,9.754624366760256,-1.08724045753479,-0.013429208658635616,0.013994654640555382,0.04376218095421791
1706236708705421594,0.11799412220716478,9.747848510742188,-1.0759251117706299,-0.012869550846517086,0.013113729655742645,0.04082025587558746
1706236708715507631,0.10724914073944092,9.758660316467287,-1.082176923751831,-0.011800093576312065,0.011522660031914711,0.03757404163479805
1706236708724941705,0.09888441115617753,9.745157241821289,-1.0718848705291748,-0.010347132571041584,0.009713505394756794,0.034018807113170624
1706236708735246261,0.10270323604345323,9.753916740417482,-1.0631948709487917,-0.009169939905405045,0.00816972367465496,0.030747761949896812
1706236708745640927,0.11350829154253007,9.752568244934084,-1.0629619359970095,-0.009021133184432983,0.007132716942578554,0.028752010315656662
1706236708755983612,0.11904928833246232,9.755612373352053,-1.0619331598281863,-0.00992802157998085,0.006671691779047251,0.02888035774230957
1706236708805454520,0.1266942769289017,9.736781120300295,-1.0988923311233523,-0.004245230462402105,0.00617509288713336,0.043870288878679276
1706236708815826927,0.11826384812593461,9.762436866760256,-1.1042648553848269,-0.0010344557231292129,0.004707524552941322,0.041786860674619675
1706236708825148538,0.12249721586704254,9.746583938598633,-1.0963125228881836,0.0016431711846962571,0.0031938489992171526,0.03611351177096367
1706236708835308038,0.12640963494777682,9.747247695922852,-1.0753268003463747,0.0033785179257392883,0.0022784536704421043,0.027778813615441322
1706236708845597538,0.11958447098731995,9.744557380676271,-1.0813348293304443,0.0041301134042441845,0.0022655946668237448,0.019174648448824883
1706236708874958464,0.1058679074048996,9.752255439758303,-1.055091142654419,0.001642577350139618,0.0033811263274401426,0.015570312738418579
1706236708887936298,0.10271055996417999,9.756961822509766,-1.047420382499695,-0.0009925916092470288,0.0030748622957617044,0.02354184351861477
1706236708898844760,0.11632786691188812,9.746883392333984,-1.065528988838196,-0.004356949124485254,0.002924493746832013,0.03372858837246895
1706236708907869686,0.12382316589355469,9.745561599731445,-1.0950680971145632,-0.007750206161290407,0.0033412312623113394,0.04341816529631615
1706236708915012853,0.13005900382995605,9.75672245025635,-1.1034497022628786,-0.00999300554394722,0.004212583415210247,0.049523111432790756
1706236708924937279,0.12806536257267,9.742570877075195,-1.0998431444168093,-0.009934660978615284,0.005148798227310181,0.04950536787509918
1706236708936005057,0.12299033254384996,9.748576164245607,-1.0740870237350466,-0.0072270603850483894,0.0058233835734426975,0.042940881103277206
1706236708947353409,0.11682349443435669,9.743189811706545,-1.0664222240447998,-0.002704847138375044,0.005985595751553774,0.032384488731622696
1706236708959794242,0.11705203354358673,9.755661010742188,-1.0689336061477663,0.0019538351334631443,0.005543905310332775,0.022308973595499992
1706236708965198094,0.11460529267787933,9.763100624084474,-1.0616050958633425,0.00507952319458127,0.004826243966817856,0.016665445640683174
1706236708975987520,0.11713990569114685,9.747602462768555,-1.0668877363204958,0.005795957054942846,0.004547296091914177,0.01701965555548668
1706236708985117075,0.11878328770399095,9.75604248046875,-1.0767486095428467,0.004287408199161291,0.005222423002123833,0.022320903837680817
1706236708995486186,0.12273862957954407,9.739559173583984,-1.1043777465820312,0.0015567231457680464,0.006631965283304453,0.029651369899511337
1706236709005561260,0.11857491731643677,9.757437705993654,-1.1203901767730713,-0.0011120791314169765,0.007999228313565254,0.03522258996963501
1706236709015636872,0.12835294008255005,9.752098083496094,-1.1398192644119265,-0.0027170709799975157,0.008671835996210575,0.03556746989488602
1706236709026971631,0.1147909238934517,9.760855674743654,-1.129909157752991,-0.0028548352420330048,0.008641203865408897,0.02885940857231617
1706236709035598612,0.13148619234561923,9.762855529785156,-1.1145758628845215,-0.0017297548474743962,0.008479672484099865,0.015929248183965683
1706236709045748279,0.12927101552486422,9.756745338439943,-1.1012272834777832,0.0001497960474807769,0.008866808377206326,0.0003282060206402093
1706236709055639871,0.13125093281269076,9.755419731140138,-1.0924911499023438,0.002390969078987837,0.010076391510665417,-0.013016723096370697
1706236709064986371,0.12940815091133118,9.750009536743164,-1.0829987525939941,0.0047865393571555614,0.01173436176031828,-0.01997264474630356
1706236709074891742,0.11911495774984361,9.748668670654297,-1.08522367477417,0.00705819483846426,0.013045042753219604,-0.018848927691578865
1706236709085044705,0.1374151259660721,9.75946044921875,-1.0902074575424197,0.008772923611104488,0.013331884518265724,-0.010800689458847046
1706236709095624834,0.13239835202693942,9.762544631958008,-1.1065267324447634,0.009690970182418823,0.012574134394526482,0.0008198587456718087
1706236709105279575,0.1360968202352524,9.75848388671875,-1.1083389520645144,0.010088616982102394,0.011486874893307686,0.01175485085695982
1706236709115320242,0.13478216528892517,9.771300315856935,-1.1196496486663818,0.010512599721550941,0.01099548302590847,0.018384454771876335
1706236709127880538,0.1364017874002457,9.764886856079102,-1.1060101985931396,0.011324984021484852,0.011704526841640472,0.018993770703673363
1706236709135226001,0.12971806526184082,9.764892578125,-1.103218197822571,0.012524335645139217,0.013700748793780804,0.014287611469626427
1706236709145236612,0.13841541111469272,9.770622253417969,-1.100279211997986,0.013811349868774414,0.01654542237520218,0.006905226036906242
1706236709155265945,0.14140412211418152,9.760830879211428,-1.0795525312423708,0.014876708388328552,0.019508121535182,0.0001491058646934107
1706236709165597501,0.14277464151382446,9.758448600769045,-1.0872323513031006,0.015730518847703934,0.021852804347872734,-0.0032867800910025835
1706236709174945779,0.14126047492027283,9.769270896911623,-1.0852866172790527,0.016662290319800377,0.023012444376945496,-0.002167354803532362
1706236709195515668,0.13946804404258728,9.763224601745607,-1.091524362564087,0.01952551305294037,0.021991156041622162,0.010108509100973606
1706236709205044538,0.15015570819377902,9.755784034729006,-1.092437982559204,0.021305596455931664,0.020938901230692863,0.017016245052218437
1706236709215029279,0.1420404314994812,9.744313240051271,-1.0958058834075928,0.023000555112957954,0.01988935098052025,0.02173100970685482
1706236709225062779,0.1449219286441803,9.782074928283693,-1.083160996437073,0.02439284138381481,0.018578536808490753,0.02332940883934498
1706236709235194445,0.13578665256500244,9.767889022827148,-1.0732375383377077,0.025288373231887817,0.01712881773710251,0.022280553355813026
1706236709245630353,0.1399804651737213,9.765162467956545,-1.065308213233948,0.025464987382292747,0.01636604219675064,0.0203010942786932
1706236709255768945,0.1351461112499237,9.754998207092287,-1.0359060764312744,0.024771656841039658,0.016888543963432312,0.019649986177682877
1706236709265188149,0.1331869810819626,9.756686210632326,-1.0252946615219118,0.023259982466697693,0.01824982836842537,0.022382516413927078
1706236709345588538,0.1268509775400162,9.779870033264162,-1.016642212867737,0.01282457448542118,0.02346678636968136,0.15176692605018616
1706236709355677334,0.13736245036125183,9.762000083923342,-1.0302796363830566,0.015485070645809174,0.025988716632127762,0.1460421234369278
1706236709365034686,0.12891113758087158,9.769073486328125,-1.0108327865600586,0.0165043156594038,0.02789221704006195,0.13293443620204926
1706236709375122519,0.11473245918750763,9.763992309570312,-1.0187426805496218,0.015896722674369812,0.0287536159157753,0.11617085337638855
1706236709385474760,0.1257012635469437,9.773096084594727,-1.0185258388519287,0.013986821286380291,0.028362765908241272,0.10000881552696228
1706236709395974093,0.11833215504884721,9.772077560424805,-0.9974066019058228,0.011097019538283348,0.027052344754338264,0.08793846517801285
1706236709424954205,0.10897167772054674,9.774770736694336,-0.9946423768997192,0.0018365283031016588,0.02300143428146839,0.08464498817920685
1706236709435238056,0.1132498010993004,9.780838012695312,-1.0015670061111452,-0.0005574178067035973,0.022515689954161644,0.08977748453617096
1706236709445394297,0.09944490343332292,9.764292716979982,-1.016165375709534,-0.002970485482364893,0.023094842210412025,0.09510760754346848
1706236709455982130,0.1122390702366829,9.771739959716797,-1.0205878019332888,-0.0055371494963765144,0.02469007484614849,0.09943477809429169
1706236709496045149,0.1218554675579071,9.762929916381836,-1.0202702283859255,-0.009894538670778275,0.028775174170732498,0.09421652555465698
1706236709539847649,0.10480325669050218,9.756202697753906,-1.034944772720337,0.00010478519106982276,0.01661490648984909,0.08263859152793884
1706236709550437353,0.09879844635725023,9.769712448120117,-1.0320241451263428,-0.0012134892167523503,0.012722179293632507,0.08222594112157822
1706236709575450205,0.09969123452901842,9.77341079711914,-1.0488997697830202,-0.016560450196266174,0.012674383819103241,0.07470940798521042
1706236709615717279,0.1014024168252945,9.756484985351562,-1.0265095233917236,-0.028561456128954887,0.024823039770126343,0.05852316692471504
1706236709655612353,0.10436175763607025,9.752464294433594,-1.0242308378219607,-0.018163088709115982,0.01143302209675312,0.0847637727856636
1706236709665968871,0.09643431752920152,9.754826545715334,-1.0309790372848513,-0.016213979572057724,0.007407883182168007,0.09310318529605865
1706236709675146927,0.10183385014533997,9.765967369079592,-1.050791382789612,-0.015548249706625938,0.004959597252309322,0.09785663336515427
1706236709865625352,0.11909738928079606,9.757952690124513,-1.0761238336563113,-0.00916245486587286,0.013544131070375443,0.04855940490961075
1706236709884308630,0.1224312260746956,9.75960922241211,-1.0613927841186523,-0.008030791766941547,0.012608127668499947,0.04719548672437668
1706236709996043556,0.11071163415908813,9.745201110839844,-1.1043925285339355,0.0013889835681766272,0.01690240390598774,0.03099561110138893
1706236710006856334,0.12308725714683533,9.763118743896484,-1.1028692722320557,0.0025623985566198826,0.017393076792359352,0.022622285410761833
1706236710015072482,0.13016055524349215,9.770560264587404,-1.1167588233947754,0.003061744151636958,0.01652798429131508,0.013849211856722832
1706236710055048019,0.13701552152633667,9.765813827514648,-1.102370619773865,0.0041452376171946526,0.016340471804142,-0.006425552535802126
1706236710065077963,0.1334000825881958,9.749961853027344,-1.0879088640213015,0.0059061842039227486,0.017473600804805756,-0.006169497035443783
1706236710075273334,0.15113180875778198,9.760088920593263,-1.0935249328613281,0.008518693037331104,0.01772383600473404,-0.0037844099570065737
1706236710085947519,0.1290777623653412,9.754344940185547,-1.0909842252731325,0.01174107939004898,0.01695791445672512,0.00030864233849570155
1706236710095295000,0.13103376328945163,9.769518852233888,-1.075052857398987,0.01506074983626604,0.015533328987658024,0.005361247342079878
1706236710236158908,0.14203070104122165,9.75067138671875,-1.0733320713043213,0.022020159289240837,0.013299256563186646,0.0290116835385561
1706236710305198889,0.10062453895807268,9.736471176147461,-1.0605273246765137,-0.0029350295662879944,0.01641184650361538,0.029475068673491478
1706236710355573223,0.1033211722970009,9.752923011779787,-1.0015316009521484,-0.01954231970012188,0.006711907684803009,0.05857435241341591
1706236710396892334,0.10982689261436462,9.777053833007812,-0.9036872386932373,-0.016995444893836975,0.009159893728792667,0.10217319428920746
1706236710504881574,0.09325167536735535,9.757208824157717,-1.0191514492034912,-0.006628548726439476,0.02151300758123398,0.15472683310508728
1706236710545714908,0.09306316822767259,9.75184726715088,-1.0580434799194336,-0.035838667303323746,0.017776809632778168,0.0863250344991684
1706236710555671982,0.0924941748380661,9.752200126647951,-1.0657933950424197,-0.03569716960191727,0.014599225483834743,0.07513217628002167
1706236710567235630,0.09449401497840881,9.750161170959474,-1.0587751865386963,-0.03330778703093529,0.010801675729453564,0.06558004021644592
1706236710575748093,0.10769814252853394,9.752209663391115,-1.0597060918807986,-0.02991374209523201,0.007348138373345137,0.05736071243882179
1706236710585749167,0.11339287459850311,9.765391349792482,-1.072547793388367,-0.026378890499472618,0.005107320379465818,0.050666987895965576
1706236710600236908,0.1122037097811699,9.761641502380373,-1.0568161010742188,-0.02284109964966774,0.004637319128960371,0.045747753232717514
1706236710605653426,0.11071623116731645,9.754222869873047,-1.0543828010559082,-0.019106831401586533,0.006081229075789452,0.04266149178147316
1706236710615864834,0.11223072558641435,9.75420665740967,-1.039520263671875,-0.015234959311783314,0.008886451832950115,0.04153382033109665
1706236710625554019,0.09849706292152405,9.770727157592773,-1.0286201238632204,-0.011708291247487068,0.011972339823842049,0.042720943689346313
1706236710635854352,0.10170502215623857,9.771406173706055,-1.0384917259216309,-0.009275931864976883,0.01456440705806017,0.04652584344148636
1706236710645837426,0.09252663701772691,9.773765563964844,-1.0271580219268799,-0.008647147566080093,0.016720233485102654,0.05266183614730835
1706236710655796074,0.09030325710773468,9.781525611877443,-1.0326383113861084,-0.010144446976482868,0.018980763852596283,0.060048554092645645
1706236710666965259,0.08936600387096405,9.777795791625977,-1.0269598960876465,-0.013560271821916103,0.021796947345137596,0.06725511699914932
1706236710675559926,0.07148205488920213,9.782864570617678,-1.0165011882781982,-0.0183123629540205,0.025252969935536385,0.07316932082176208
1706236710685629945,0.07317272573709489,9.784523010253906,-1.0170582532882693,-0.02381656877696514,0.029064573347568512,0.0774603858590126
1706236710702631445,0.0677023008465767,9.774052619934084,-1.005500912666321,-0.029724808409810066,0.032739248126745224,0.08059001713991165
1706236710705881852,0.07386594265699388,9.76900863647461,-1.0142885446548464,-0.03573612868785858,0.035645127296447754,0.0833570808172226
1706236710715817963,0.0888538807630539,9.773069381713867,-1.0177506208419802,-0.04124383255839348,0.037075500935316086,0.08627718687057495
1706236710725835852,0.09178436547517778,9.765286445617678,-1.021083474159241,-0.04519975557923317,0.03660271689295769,0.08917316794395447
1706236710736060426,0.08765537291765214,9.760909080505373,-1.0236452817916872,-0.04649842530488968,0.03434714302420616,0.09131935238838196
1706236710745320370,0.08917959779500963,9.757200241088867,-1.0212494134902956,-0.04477260634303093,0.03078697994351387,0.09202118217945099
1706236710755015019,0.09970743954181671,9.769358634948732,-1.0294615030288699,-0.04072875156998634,0.026533635333180428,0.09107648581266403
1706236710766253019,0.08983898162841797,9.76768684387207,-1.0418424606323242,-0.03563457354903221,0.022400351241230965,0.08872050046920776
1706236710775012111,0.09420989453792572,9.762625694274904,-1.0415543317794802,-0.030712909996509552,0.01931910589337349,0.08522064983844757
1706236710785744815,0.10247435420751573,9.778811454772951,-1.041745901107788,-0.026848211884498596,0.01791243627667427,0.08075093477964401
1706236710795301945,0.07728129625320435,9.771730422973633,-1.0404165983200075,-0.024439703673124313,0.018305113539099693,0.07568324357271194
1706236710807644130,0.08548320084810258,9.763967514038086,-1.0415505170822146,-0.023610040545463562,0.020204078406095505,0.07072893530130386
1706236710815117741,0.07752918452024461,9.767003059387209,-1.0422099828720095,-0.024492427706718445,0.02283664606511593,0.0666690468788147
1706236710824911407,0.08719753473997117,9.773431777954102,-1.0543934106826784,-0.027002807706594467,0.025164417922496796,0.06392653286457062
1706236710835013167,0.08868075907230377,9.780195236206055,-1.05973756313324,-0.03048541024327278,0.026578152552247047,0.062251634895801544
1706236710845158370,0.08866218477487565,9.774126052856445,-1.0682191848754883,-0.03382010757923126,0.027270682156085968,0.06076069548726082
1706236710855921759,0.09269990026950836,9.761967658996584,-1.0649102926254275,-0.03593502938747406,0.0277607049793005,0.05843120440840721
1706236710865056241,0.11172859370708466,9.765048027038576,-1.0828180313110352,-0.03618805482983589,0.028140245005488396,0.054678939282894135
1706236710875928574,0.12018858641386033,9.761662483215334,-1.0846801996231081,-0.034226421266794205,0.027977826073765755,0.049471478909254074
1706236710885765370,0.11052107810974121,9.763037681579592,-1.0881459712982178,-0.029853250831365585,0.02686832845211029,0.043089501559734344
1706236710896997407,0.12777356803417209,9.77216911315918,-1.0919409990310671,-0.023372473195195198,0.02489704079926014,0.03602772206068039
1706236710905402630,0.12920022010803223,9.765417098999023,-1.0929347276687624,-0.015704352408647537,0.022683972492814064,0.02897287905216217
1706236710915242759,0.125492125749588,9.770159721374513,-1.1057534217834473,-0.007923129945993423,0.02102900855243206,0.02257538214325905
1706236710924936056,0.11914736032485962,9.748552322387695,-1.1050745248794558,-0.0009883367456495762,0.0203320924192667,0.01712649129331112
1706236710935494722,0.13309191167354587,9.749913215637209,-1.099605202674866,0.004259287845343351,0.020186278969049454,0.012532690539956093
1706236710945667852,0.13045534491539001,9.773565292358398,-1.1160593032836914,0.00742435222491622,0.019696541130542755,0.00862465612590313
1706236710955647574,0.1398102343082428,9.773219108581545,-1.1056212186813357,0.00889448169618845,0.018548663705587387,0.005288935266435146
1706236710965510370,0.13963931798934937,9.757714271545412,-1.1123149394989014,0.009630967862904072,0.017463980242609978,0.0024058055132627487
1706236710975224981,0.13514429330825806,9.748948097229006,-1.1115397214889529,0.010591200552880764,0.01717226766049862,-8.229668310377747e-05
1706236710987918852,0.13869893550872803,9.75500011444092,-1.1090307235717773,0.012212958186864853,0.017390793189406395,-0.0021367885638028383
1706236710995808130,0.14672520756721497,9.762788772583008,-1.113983392715454,0.014354074373841286,0.017254462465643883,-0.0036950360517948866
1706236711004999759,0.13538241386413574,9.770885467529297,-1.123484253883362,0.016664963215589523,0.016441931948065758,-0.004803246818482876
1706236711015049778,0.14538884162902832,9.764821052551271,-1.1142785549163818,0.018825236707925797,0.0155441639944911,-0.005754114128649235
1706236711029019333,0.13784992694854736,9.756398200988771,-1.1228938102722168,0.020551372319459915,0.015368548221886158,-0.006923680659383535
1706236711035753185,0.13952139019966125,9.750308036804201,-1.1141911745071413,0.021650701761245728,0.016024809330701828,-0.008436527103185654
1706236711045240611,0.13065600395202637,9.762120246887209,-1.1134127378463747,0.022016316652297974,0.016809294000267982,-0.01005593966692686
1706236711058756537,0.1350069493055344,9.755724906921388,-1.1198251247406006,0.021555595099925995,0.01696157455444336,-0.01133362390100956
1706236711066959315,0.13867427408695224,9.757103919982912,-1.1250659227371218,0.020294787362217903,0.016299163922667503,-0.011990324594080448
1706236711076139796,0.13818001747131348,9.756760597229006,-1.118925213813782,0.018584316596388817,0.015119986608624458,-0.012214414775371552
1706236711086797074,0.1311761736869812,9.747974395751953,-1.1060078144073486,0.016998426988720894,0.01379681471735239,-0.012360758148133755
1706236711095797926,0.1518259793519974,9.75341796875,-1.1293752193450928,0.01599717326462269,0.012505514547228813,-0.012459944933652878
1706236711106314130,0.1499101370573044,9.76485347747803,-1.1054339408874512,0.01592135801911354,0.011293970979750156,-0.012337925843894482
1706236711115405574,0.14571413397789001,9.752029418945312,-1.111230254173279,0.017109505832195282,0.010381875559687614,-0.011895093135535717
1706236711125425167,0.14684019982814792,9.75337886810303,-1.10270357131958,0.019575146958231926,0.010062909685075283,-0.010971657000482082
1706236711135302296,0.1517554223537445,9.761850357055664,-1.1120378971099854,0.022762451320886612,0.010324524715542793,-0.009359996765851974
1706236711145654685,0.13831037282943726,9.747969627380373,-1.093127727508545,0.02584901452064514,0.010890843346714973,-0.0070722284726798534
1706236711155755907,0.13078159093856812,9.757087707519531,-1.0920115709304812,0.028013059869408607,0.011447389610111713,-0.004253067541867495
1706236711166423129,0.1408086568117142,9.742898941040039,-1.0819679498672488,0.028512246906757355,0.011667062528431416,-0.0008617938146926463
1706236711175694426,0.12268158793449402,9.761803627014162,-1.0780047178268435,0.026997925713658333,0.01130232959985733,0.00332633382640779
1706236711185826889,0.13331112265586853,9.746617317199709,-1.0750112533569336,0.023740166798233986,0.01040045265108347,0.008441791869699955
1706236711197896685,0.1352381706237793,9.759048461914062,-1.0628968477249148,0.019492853432893753,0.009319141507148743,0.014350194483995438
1706236711206101870,0.1350170373916626,9.747630119323732,-1.0688867568969727,0.015318932943046093,0.008459637872874737,0.020711200311779976
1706236711215410148,0.13635061681270602,9.748627662658693,-1.0796449184417725,0.012280536815524101,0.007984787225723267,0.026982096955180168
1706236711225583611,0.13269303739070895,9.751658439636232,-1.0717815160751345,0.010960517451167107,0.00774705596268177,0.03229979798197746
1706236711236031666,0.13353875279426575,9.756052970886232,-1.0737847089767458,0.01123442966490984,0.007526864297688007,0.03576452285051346
1706236711245401241,0.13332469761371615,9.747261047363281,-1.0780506134033203,0.012449673376977444,0.007309749256819487,0.03702278435230255
1706236711256015222,0.14302489161491394,9.746599197387695,-1.066761612892151,0.013875534757971764,0.007160713896155357,0.03643427789211273
1706236711265830037,0.14488720893859863,9.749640464782717,-1.0772916078567507,0.015166952274739742,0.006969123147428036,0.03482874482870102
1706236711275887407,0.14218793809413913,9.752655982971193,-1.0699719190597536,0.016461554914712906,0.006577907595783472,0.03313093259930611
1706236711285545241,0.14452341198921204,9.75198745727539,-1.070963263511658,0.018016140908002853,0.006065567955374718,0.03199561685323715
1706236711295839852,0.14584051072597506,9.749976158142092,-1.0735663175582888,0.019854918122291565,0.00570288160815835,0.031682610511779785
1706236711306083833,0.1417569071054459,9.746270179748537,-1.069385051727295,0.0217682346701622,0.005649158731102943,0.03210996091365814
1706236711315413778,0.15597102046012878,9.74627685546875,-1.0756036043167116,0.023503879085183144,0.0057660178281366825,0.032959144562482834
1706236711325504907,0.16617693006992343,9.75810432434082,-1.0844740867614746,0.02507912926375866,0.005788596346974373,0.033768247812986374
1706236711335511389,0.14452260732650757,9.751009941101076,-1.0853198766708376,0.0269002765417099,0.005695975385606289,0.03394266217947006
1706236711345596407,0.15364523231983188,9.753351211547852,-1.0763617753982546,0.029218558222055435,0.005756575148552656,0.03296951577067375
1706236711355194481,0.160749688744545,9.747947692871094,-1.0771644115447998,0.0316828154027462,0.006158437114208937,0.030897578224539757
1706236711365688389,0.16093307733535767,9.748955726623537,-1.0707253217697146,0.033816367387771606,0.006757027469575405,0.028488056734204292
1706236711375742500,0.15645822882652283,9.750643730163576,-1.0638359785079958,0.035532522946596146,0.007208900060504675,0.026817122474312782
1706236711380318518,0.1515319049358368,9.755012512207031,-1.0578161478042605,0.03690282627940178,0.007296811789274216,0.026806673035025597
1706236711397543981,0.14791439473629,9.753673553466797,-1.0552966594696045,0.03776281327009201,0.007135594729334116,0.028943566605448723
1706236711401065518,0.13716195523738864,9.760067939758303,-1.052248239517212,0.03769013658165932,0.007083479780703783,0.033121947199106216
1706236711414426481,0.14251357316970825,9.75870990753174,-1.0468909740447998,0.036248523741960526,0.0075116283260285854,0.03868700936436653
1706236711425296370,0.15629591047763827,9.757031440734865,-1.0602500438690186,0.03341595456004143,0.008606248535215855,0.044665269553661346
1706236711434717759,0.1625860631465912,9.75734615325928,-1.043142557144165,0.030028505250811577,0.010231233201920986,0.050010524690151215
1706236711444802629,0.15309302508831027,9.760364532470703,-1.0469651222229004,0.027575550600886345,0.011986728757619858,0.053971968591213226
1706236711454768426,0.1596282422542572,9.752618789672852,-1.045546293258667,0.027206676080822945,0.013451479375362396,0.05644840747117996
1706236711465562240,0.14367958903312683,9.76103401184082,-1.0414634943008425,0.028929129242897034,0.014345207251608372,0.057868994772434235
1706236711474554833,0.15426318347454074,9.760692596435547,-1.0364837646484375,0.03169138357043266,0.014616763219237328,0.05883369594812393
1706236711484665629,0.15961964428424838,9.753242492675781,-1.0210875272750857,0.034170180559158325,0.014474167488515377,0.05999935790896416
1706236711496684055,0.1554427444934845,9.762372970581055,-1.0242353677749636,0.03565095737576485,0.014191447757184505,0.06207500770688057
1706236711504318463,0.16291847825050354,9.758986473083498,-1.022741198539734,0.03625207394361496,0.013948655687272549,0.06555512547492981
1706236711514353907,0.14374595880508423,9.765400886535646,-1.0215090513229372,0.0364319309592247,0.013910762965679169,0.07031168788671494
1706236711526230796,0.15358012914657593,9.763750076293945,-1.0301603078842165,0.03640346601605415,0.014269382692873478,0.0755389854311943
1706236711534249870,0.14550901949405673,9.752888679504396,-1.0173120498657227,0.035996321588754654,0.01508384570479393,0.08014429360628128
1706236711544282870,0.14800284802913669,9.750197410583498,-1.0295695066452029,0.034981533885002136,0.016026495024561882,0.08329455554485321
1706236711554294018,0.12957330048084262,9.750499725341797,-1.0143600702285769,0.03327824920415878,0.016394997015595436,0.08477204293012619
1706236711564889833,0.12575279176235202,9.761980056762695,-1.011176943778992,0.03075624443590641,0.015644436702132225,0.08502110838890076
1706236711574198944,0.12762102484703064,9.75456428527832,-1.0100984573364258,0.027138737961649895,0.013945006765425205,0.08498425036668777
1706236711584368833,0.13590376079082492,9.752506256103516,-1.001286268234253,0.022418463602662086,0.012039117515087128,0.08567837625741959
1706236711598152870,0.14098952710628512,9.761641502380373,-1.0058830976486208,0.017339689657092094,0.010607607662677765,0.08770813047885895
1706236711604277388,0.13503769040107727,9.761280059814453,-1.0074323415756228,0.01321223471313715,0.010001390241086483,0.09102097153663635
1706236711614430203,0.1281447410583496,9.75585460662842,-0.9956497550010682,0.011051895096898079,0.010341602377593517,0.0949821025133133
1706236711624453259,0.13240349292755127,9.764302253723146,-1.0031015872955322,0.010865245945751667,0.011489830911159515,0.09881319105625153
1706236711634419407,0.14066465198993686,9.755844116210938,-0.9900592565536499,0.011852748692035675,0.013054469600319862,0.10204671323299408
1706236711645004463,0.13510805368423462,9.750781059265138,-0.987631380558014,0.013213674537837505,0.014527757652103901,0.10466799885034561
1706236711654439759,0.13207319378852844,9.750083923339844,-0.9826732873916626,0.014527475461363792,0.01533636823296547,0.10705643892288208
1706236711664849314,0.12444977462291718,9.750093460083008,-0.9955286979675293,0.015491614118218422,0.014995802193880081,0.10966236144304276
1706236711674195777,0.1203880086541176,9.760896682739258,-0.9954429268836976,0.015664391219615936,0.013471966609358788,0.11247460544109344
1706236711684187851,0.12127601355314256,9.759186744689943,-0.9912213087081909,0.014593257568776608,0.011388657614588737,0.11489330977201462
1706236711695201259,0.11768805235624315,9.761213302612305,-0.9952409267425537,0.012146550230681896,0.009753977879881859,0.11625818908214569
1706236711704632888,0.11400439590215684,9.751774787902834,-0.9998854994773866,0.008652737364172935,0.009310610592365265,0.11633498966693878
1706236711714737037,0.11459936201572418,9.764938354492188,-1.0080876350402832,0.004699160344898701,0.010090167634189129,0.11521893739700317
1706236711731409740,0.10749025642871857,9.751089096069336,-1.0119031667709353,0.0008416030905209482,0.01157447136938572,0.11301466822624207
1706236711734375962,0.10660627484321594,9.761552810668945,-1.033321261405945,-0.002589360810816288,0.013118263334035873,0.10967601835727692
1706236711745173129,0.11482108384370805,9.766307830810547,-1.0324931144714355,-0.005497262813150883,0.014279353432357311,0.10497377812862396
1706236711754836481,0.10707353055477142,9.767683029174805,-1.046868443489075,-0.007814733311533928,0.015075154602527618,0.09865518659353256
1706236711764377666,0.1130920946598053,9.755197525024414,-1.0652691125869753,-0.009406890720129013,0.015863174572587013,0.09068208187818527
1706236711779860925,0.1034388914704323,9.75663471221924,-1.1101465225219727,-0.010241328738629818,0.016772249713540077,0.08100210130214691
1706236711787170129,0.10449503362178802,9.759646415710451,-1.1079990863800049,-0.010550432838499546,0.017454924061894417,0.06907036155462265
1706236711794712333,0.12072189897298814,9.760054588317873,-1.1470924615859988,-0.010698914527893066,0.0175183042883873,0.054101698100566864
1706236711807881444,0.13764019310474399,9.740462303161623,-1.1395957469940186,-0.010649116709828377,0.016867928206920624,0.03591715171933174
1706236711820191074,0.1445537507534027,9.756698608398438,-1.1389973163604736,-0.009553834795951843,0.015506960451602936,0.015536688268184662
1706236711824761685,0.17132359743118286,9.760739326477053,-1.1332172155380251,-0.006101948209106922,0.013514116406440735,-0.004715039394795895
1706236711836001796,0.15616512298583984,9.766140937805178,-1.103670954704285,0.0006715533672831953,0.011441406793892384,-0.021687932312488556
1706236711847849759,0.1137157529592514,9.753253936767578,-1.0683282613754275,0.01037225965410471,0.010205838829278946,-0.032174620777368546
1706236711854554907,0.07460469752550127,9.751457214355469,-1.0157110691070557,0.020223071798682213,0.010282912291586399,-0.033382266759872437
1706236711864872574,0.03820393607020379,9.772335052490234,-0.9753988385200502,0.02529188245534897,0.011328784748911858,-0.02325274795293808
1706236711874182888,0.023147555068135265,9.775671005249023,-0.940782129764557,0.020670130848884583,0.012858265079557896,-0.0010432768613100052
1706236711885409166,0.01738344691693783,9.775959014892578,-0.9306278824806214,0.0042297146283090115,0.01494831033051014,0.03190385550260544
1706236711895240796,0.0002765530080068857,9.762391090393068,-0.8898093104362489,-0.022052034735679626,0.017880989238619804,0.07191624492406845
1706236711904356944,0.0027919914573431015,9.772522926330568,-0.8955942392349243,-0.053059231489896774,0.02137126959860325,0.11392854154109955
1706236711914653073,-0.007729572709649802,9.770813941955568,-0.9090502858161927,-0.08286990970373154,0.02458924427628517,0.15284354984760284
1706236711924728388,0.01238490641117096,9.76680660247803,-0.9416196346282959,-0.1067853644490242,0.02681969851255417,0.1841157227754593
1706236711934396666,0.021358190104365352,9.74050807952881,-0.9633485078811646,-0.12215644866228104,0.027666378766298294,0.2039405256509781
1706236711944386907,0.016180520877242092,9.755363464355469,-0.9765739440917969,-0.12832900881767273,0.02671530842781067,0.21000881493091583
1706236711954531018,0.0473264679312706,9.745913505554201,-0.974078118801117,-0.12637585401535034,0.023646194487810135,0.20263762772083282
1706236711965361759,0.06551907956600189,9.748977661132812,-1.0030665397644043,-0.11838559061288834,0.018785281106829643,0.1851273477077484
1706236711974497110,0.06365223228931427,9.741581916809084,-1.0269891023635866,-0.10641486197710037,0.013117174617946148,0.1624159961938858
1706236711987908370,0.07350985705852509,9.755845069885256,-1.0719863176345827,-0.09220873564481735,0.007780035026371479,0.13867506384849548
1706236711994724925,0.0681646317243576,9.756218910217287,-1.0859391689300537,-0.0775744616985321,0.003774509532377124,0.11571270227432251
1706236712007821573,0.06665657460689545,9.769429206848146,-1.1308624744415283,-0.06441660225391388,0.0019221918191760778,0.09317751228809357
1706236712014685518,0.07005415111780168,9.767136573791506,-1.1797089576721191,-0.05434899404644966,0.002729278989136219,0.06964149326086044
1706236712025212110,0.07959372550249101,9.776966094970703,-1.2094298601150515,-0.04815614968538284,0.006165095139294863,0.043377019464969635
1706236712034922370,0.08427620679140092,9.773280143737795,-1.2293678522109988,-0.04539331793785095,0.011597959324717522,0.013122811913490295
1706236712045174740,0.08261609077453613,9.773966789245607,-1.2265369892120361,-0.04460772126913071,0.01795525662600994,-0.020779946818947792
1706236712054241036,0.09746353328227997,9.778664588928224,-1.1945078372955322,-0.044118862599134445,0.024027617648243904,-0.055572327226400375
1706236712064778425,0.08946861326694489,9.773258209228516,-1.1740646362304688,-0.04268864914774895,0.02885223738849163,-0.08627886325120926
1706236712077977592,0.08739804476499559,9.767128944396974,-1.1264142990112305,-0.03986404463648796,0.031917229294776917,-0.10710635036230087
1706236712084945147,0.10493644326925279,9.755973815917969,-1.098471283912659,-0.036020491272211075,0.032994117587804794,-0.11346659064292908
1706236712095314536,0.11323177069425584,9.762402534484865,-1.0963482856750488,-0.031796567142009735,0.03196064755320549,-0.10373067110776901
1706236712105071073,0.10863070935010911,9.753314018249513,-1.1049344539642334,-0.0274038203060627,0.028961384668946266,-0.08032947778701782
1706236712117344703,0.11412902176380157,9.772560119628906,-1.1192774772644043,-0.022738564759492874,0.024666182696819305,-0.04961845651268959
1706236712131303370,0.12028293311595917,9.7752685546875,-1.1192041635513308,-0.01786702126264572,0.020328788086771965,-0.019887657836079597
1706236712134727203,0.11389988660812378,9.768905639648438,-1.129676938056946,-0.013079437427222729,0.017455046996474266,0.0017312966519966722
1706236712148962962,0.11196463555097581,9.779685974121094,-1.135998249053955,-0.008781190030276775,0.01704953797161579,0.011617237702012062
1706236712154849221,0.0940762832760811,9.768539428710938,-1.1225773096084597,-0.005574306473135948,0.019084002822637558,0.01018935814499855
1706236712164523907,0.09050962328910828,9.774235725402834,-1.113695025444031,-0.004297086503356695,0.022639652714133263,0.0010769676882773638
1706236712174400647,0.0821017548441887,9.78602409362793,-1.08919358253479,-0.005750596988946199,0.026489363983273506,-0.010329870507121086
1706236712185203981,0.0851062536239624,9.772864341735842,-1.0867861509323122,-0.010178926400840282,0.02977103367447853,-0.018660884350538254
1706236712194837073,0.07694917172193529,9.761062622070312,-1.0839201211929324,-0.01694224216043949,0.03209409490227699,-0.020343352109193802
1706236712205090221,0.07504636794328691,9.761086463928224,-1.0888308286666872,-0.02475227601826191,0.033045195043087006,-0.014758067205548286
1706236712215993962,0.07057631760835649,9.75198268890381,-1.0968742370605469,-0.03228304907679558,0.03208085149526596,-0.004165422637015581
1706236712224238351,0.06491040438413621,9.765853881835938,-1.106095790863037,-0.038669828325510025,0.02903083898127079,0.007521392777562141
1706236712234738888,0.06368120759725572,9.76820468902588,-1.0986596345901491,-0.043667662888765335,0.024562085047364235,0.016452224925160408
1706236712245438814,0.07553720474243164,9.760752677917482,-1.1000365018844607,-0.04743613675236702,0.020071107894182205,0.020386941730976105
1706236712255417647,0.07407867908477783,9.761795043945312,-1.0953336954116824,-0.05007018521428108,0.016887301579117775,0.019379904493689537
1706236712265492907,0.08316546678543091,9.772247314453125,-1.0958265066146853,-0.05135786160826683,0.015560892410576344,0.015265531837940216
1706236712274239907,0.07516413182020189,9.75333881378174,-1.0931540727615359,-0.05103446543216705,0.015894299373030663,0.010471911169588566
1706236712284327592,0.08943380415439606,9.760421752929688,-1.1025222539901736,-0.049153901636600494,0.017193278297781944,0.006910824682563543
1706236712294677258,0.08391315490007402,9.75772476196289,-1.0993689298629763,-0.04612526670098305,0.018480462953448296,0.0053395433351397514
1706236712305040721,0.0957482233643532,9.75369167327881,-1.1017359495162966,-0.042465079575777054,0.018943876028060913,0.005399420857429504
1706236712315119981,0.06918632984161377,9.750616073608398,-1.0744606256484988,-0.03870047256350517,0.018245654180645943,0.006328996736556292
1706236712325234295,0.021864125505089763,9.758703231811523,-1.0632073879241943,-0.03584398329257965,0.01647806726396084,0.007930951192975044
1706236712334946110,0.0313660390675068,9.756719589233398,-1.0926568508148193,-0.03592844679951668,0.014119609259068966,0.01076748501509428
1706236712344425481,0.03913889080286026,9.750277519226076,-1.0827467441558838,-0.04105832055211067,0.011884082108736038,0.01507112942636013
1706236712354679258,0.04067140817642212,9.771279335021974,-1.1107594966888428,-0.051319852471351624,0.010371850803494453,0.01977269910275936
1706236712364431184,0.020282870158553127,9.758734703063967,-1.079623579978943,-0.0642772763967514,0.009964429773390293,0.023028455674648285
1706236712377089221,0.0009273074101656675,9.768811225891115,-1.0760867595672607,-0.07687608897686005,0.010863088071346283,0.023727241903543472
1706236712385500592,0.03297223150730133,9.747285842895508,-1.1054778099060059,-0.08734908699989319,0.012860922142863274,0.02233637124300003
1706236712394941110,0.03083563968539238,9.76578140258789,-1.0551795959472656,-0.09509265422821045,0.015193759463727474,0.020220013335347176
1706236712404499184,0.03122834861278534,9.751944541931154,-1.0613219738006592,-0.09964996576309204,0.016923630610108376,0.018859360367059708
1706236712415164518,0.03787141293287277,9.759672164916992,-1.0456775426864626,-0.10071201622486115,0.017501944676041603,0.01979743130505085
1706236712424426573,0.050095073878765106,9.737414360046388,-1.0510787963867188,-0.09857553243637085,0.016849668696522713,0.024124177172780037
1706236712434343666,0.04476098716259003,9.74252700805664,-1.0820275545120241,-0.09401127696037292,0.014994236640632153,0.031490735709667206
1706236712445563258,0.03717282786965371,9.74319362640381,-1.0690521001815798,-0.08806180953979492,0.011932877823710442,0.039759449660778046
1706236712455232203,0.037888988852500916,9.747921943664553,-1.0898020267486572,-0.08210325986146927,0.007967530749738216,0.04591931775212288
1706236712466207110,0.03455911204218865,9.738164901733398,-1.0949889421463015,-0.07760381698608398,0.0038756518624722958,0.04766687750816345
1706236712474878703,0.027425598353147507,9.75401020050049,-1.0981119871139529,-0.07556101679801941,0.0005371715524233878,0.0442795492708683
1706236712484985999,0.031223857775330547,9.766542434692383,-1.1203120946884157,-0.07620125263929367,-0.0013350540539249778,0.036501288414001465
1706236712495416351,0.023905180394649506,9.777313232421875,-1.1095312833786013,-0.07904574275016785,-0.0010316645493730903,0.025930697098374367
1706236712504910166,0.028514008969068527,9.749996185302734,-1.1227675676345827,-0.08315569162368774,0.0019628049340099096,0.014398686587810516
1706236712515112092,0.02792278304696083,9.754714012145998,-1.1200885772705078,-0.08745705336332321,0.007132858503609896,0.0035910073202103376
1706236712525062277,0.04133109375834466,9.76346206665039,-1.090410113334656,-0.09095504879951477,0.012735823169350624,-0.005111264064908028
1706236712534966721,0.038312673568725586,9.749976158142092,-1.096398711204529,-0.092811219394207,0.01691512204706669,-0.010486307553946972
1706236712544992555,0.05911310017108917,9.732425689697266,-1.1054952144622803,-0.09244044125080109,0.0186119694262743,-0.01163574494421482
1706236712555299869,0.06452829390764238,9.747318267822266,-1.1051932573318484,-0.08955392241477966,0.017436692491173744,-0.00883619673550129
1706236712564708055,0.06326241046190263,9.751368522644045,-1.107567310333252,-0.08416751027107239,0.013664127327501774,-0.003822412109002471
1706236712574852462,0.0630340799689293,9.754390716552734,-1.1066627502441406,-0.0768268033862114,0.008571133948862553,0.0011374573223292828
1706236712585509425,0.07611575722694397,9.746315002441406,-1.1072568893432617,-0.06869526207447052,0.004014731850475073,0.004363872576504946
1706236712594566962,0.07139406353235246,9.744979858398438,-1.1238373517990115,-0.061049025505781174,0.00132004136685282,0.005185484420508146
1706236712604797925,0.05858578532934189,9.761820793151857,-1.1103041172027588,-0.05479954928159714,0.0007134758634492755,0.0036920730490237474
1706236712614912777,0.04631878435611725,9.763492584228516,-1.1144154071807861,-0.05067574605345726,0.0018136817961931229,0.000479906884720549
1706236712625325555,0.04344070702791214,9.750340461730959,-1.1075046062469482,-0.04947439208626747,0.00422756327316165,-0.003390753176063299
1706236712634914999,0.03180921822786331,9.743920326232912,-1.1187213659286501,-0.05174851045012474,0.007348791230469942,-0.006717012729495764
1706236712645252666,0.02228629402816296,9.767171859741211,-1.0864490270614626,-0.057391006499528885,0.010153981857001781,-0.008624659851193428
1706236712655738721,0.027870034798979763,9.754692077636719,-1.076588273048401,-0.06561260670423508,0.011875026859343052,-0.00846909824758768
1706236712664837017,0.021837912499904633,9.759751319885256,-1.0935897827148438,-0.0750960111618042,0.012570704333484173,-0.005609719082713127
1706236712674928295,0.03630509227514267,9.752337455749513,-1.101511359214783,-0.08419206738471985,0.012728669680655003,-9.521996980765834e-05
1706236712684912666,0.030984360724687576,9.772619247436523,-1.1039022207260134,-0.09127382934093475,0.012755242176353931,0.006565858609974384
1706236712696544406,0.01798655651509762,9.743584632873537,-1.1086682081222536,-0.09530332684516907,0.012938027270138264,0.011996481567621231
1706236712705519888,0.019279923290014267,9.74455451965332,-1.092651128768921,-0.0964289978146553,0.01325870119035244,0.014412126503884792
1706236712714231184,0.029125675559043884,9.74859142303467,-1.0700064897537234,-0.09587318450212479,0.013147377409040928,0.013757556676864624
1706236712724302129,0.012586697936058044,9.766447067260742,-1.0550717115402224,-0.09500305354595184,0.012059027329087257,0.011965270154178143
1706236712734926758,0.01678667962551117,9.739766120910646,-1.0552847385406494,-0.09471121430397034,0.010253069922327995,0.011991942301392555
1706236712744931943,0.010586745105683805,9.752910614013672,-1.0451229810714724,-0.09546739608049393,0.008462733589112759,0.016050949692726135
1706236712754970703,0.011192433536052704,9.747857093811037,-1.0454208850860596,-0.09738777577877045,0.007093497551977634,0.024425428360700607
1706236712765340740,0.004008148796856403,9.741422653198242,-1.0523402690887451,-0.10024474561214447,0.006114334333688021,0.03556329011917114
1706236712774721406,0.004122660495340824,9.759344100952148,-1.0793662071228027,-0.1036427915096283,0.005353732034564018,0.04677458480000496
1706236712784285814,0.014536711387336256,9.74827289581299,-1.1133490800857546,-0.10714089870452881,0.004780702758580446,0.05479622259736061
1706236712794880795,0.023880580440163616,9.758398056030273,-1.1185647249221804,-0.11010633409023285,0.0046122134663164616,0.056440096348524094
1706236712805468110,0.008890279568731787,9.741172790527344,-1.1096832752227783,-0.11170986294746399,0.005026868544518948,0.049914080649614334
1706236712814574240,-0.0005519232363440097,9.755002975463867,-1.0915282964706423,-0.11156293004751205,0.005837665405124426,0.036327917128801346
1706236712824714295,-0.0032583607826381926,9.734063148498537,-1.0929838418960574,-0.11037489026784897,0.006538265850394964,0.019802896305918694
1706236712835283703,0.005845260806381702,9.76951313018799,-1.0947027206420898,-0.10956118255853653,0.006674780510365963,0.0055294521152973175
1706236712855268184,-0.007381732575595379,9.7576379776001,-1.0756762027740479,-0.11014775186777115,0.006358955055475235,-0.0027492980007082224
1706236712891473591,0.03930696472525597,9.749943733215334,-1.124051809310913,-0.11569518595933914,0.010886486619710922,0.008686983026564121
1706236712896727165,0.03643270581960678,9.757693290710451,-1.1193172931671143,-0.11176597326993942,0.012317686341702938,0.007063627243041992
1706236712907438980,0.05658941715955734,9.746907234191896,-1.1135900020599365,-0.10484087467193604,0.012770003639161587,0.0012932041427120566
1706236712915745203,0.03930893540382385,9.756340980529787,-1.1087729930877686,-0.09599018096923828,0.012223565019667149,-0.006154924631118774
1706236712925088091,0.04935571178793908,9.749579429626467,-1.098762392997742,-0.08675182610750198,0.010995935648679733,-0.012328221462666988
1706236712935631369,0.04618522524833679,9.742842674255373,-1.106816649436951,-0.07872094959020615,0.009499704465270042,-0.01507560908794403
1706236712945166332,0.04052991420030594,9.74452304840088,-1.1054862737655642,-0.0730660930275917,0.007946415804326534,-0.013813321478664875
1706236712965221499,0.03669772297143936,9.76884174346924,-1.1144421100616455,-0.07022318243980408,0.004909071139991283,-0.004115767776966095
1706236712974483721,0.0463915690779686,9.758743286132812,-1.140953779220581,-0.07230594009160995,0.004414244554936886,0.0004518411005847156
1706236712985164221,0.05645976588129998,9.754377365112305,-1.1466432809829714,-0.07533273100852966,0.0055360011756420135,0.0021350730676203966
1706236712994700777,0.04829860851168633,9.758743286132812,-1.144059658050537,-0.07775909453630447,0.008109013549983501,-0.0006425905739888549
1706236713004766110,0.04801847413182259,9.766824722290039,-1.1288096904754639,-0.0783950686454773,0.011227628216147423,-0.007942825555801392
1706236713015029091,0.05073952674865723,9.755008697509766,-1.1268473863601687,-0.07707687467336655,0.014031455852091312,-0.017753133550286293
1706236713025398684,0.05783934518694878,9.755351066589357,-1.1166266202926638,-0.07450386881828308,0.01603294536471367,-0.026800021529197693
1706236713034508684,0.0645601972937584,9.76713275909424,-1.1125193834304812,-0.07147005945444107,0.016992870718240738,-0.0321340337395668
1706236713054922499,0.06122049689292908,9.753022193908693,-1.1463980674743652,-0.06559132039546967,0.0166927520185709,-0.028078611940145493
1706236713066623314,0.06435791403055192,9.760424613952638,-1.1390964984893799,-0.06330395489931107,0.016354534775018692,-0.021932991221547127
1706236713075248480,0.07604018598794939,9.763814926147461,-1.1524407863616943,-0.061553001403808594,0.01606915332376957,-0.017320595681667328
1706236713084249943,0.05436527356505395,9.758024215698242,-1.1232951879501345,-0.05994182452559471,0.015827445313334465,-0.01659463346004486
1706236713154439628,0.044814854860305786,9.763113021850586,-1.118183732032776,-0.06146806851029396,0.015491806901991367,-0.03466911241412163
1706236713164597073,0.04006676748394967,9.761384963989258,-1.1116833686828613,-0.06229656562209129,0.015282257460057735,-0.03483996167778969
1706236713175235739,0.04221313819289208,9.74724864959717,-1.1219401359558105,-0.06384848058223724,0.014906754717230797,-0.03331786021590233
1706236713185371739,0.05207808688282967,9.746575355529787,-1.1176298856735232,-0.06650618463754654,0.014369764365255833,-0.02942245826125145
1706236713203675110,0.06447368860244751,9.751976013183594,-1.1361379623413086,-0.06973250955343246,0.013368421234190464,-0.023858869448304176
1706236713206504462,0.06746383011341095,9.758715629577638,-1.1355766057968142,-0.07215125113725662,0.011717661283910275,-0.0184487234801054
1706236713215887073,0.06189955770969391,9.764138221740724,-1.1332346200942995,-0.07233862578868866,0.009858634322881699,-0.01516016572713852
1706236713225247313,0.07079015672206879,9.757031440734865,-1.1253774166107178,-0.06978148967027664,0.00868443213403225,-0.014986109919846058
1706236713234756110,0.06127529218792916,9.751617431640625,-1.132554054260254,-0.06515306979417801,0.008800359442830086,-0.017413638532161713
1706236713246108462,0.0760016366839409,9.759745597839357,-1.1433495283126833,-0.05979570746421814,0.010006986558437347,-0.021029120311141014
1706236713256898499,0.07326457649469377,9.758400917053224,-1.1463654041290283,-0.05493916571140289,0.011590472422540188,-0.02467910200357437
1706236713265404739,0.07603134214878082,9.758725166320803,-1.1468770503997803,-0.051180049777030945,0.012964860536158085,-0.028028180822730064
1706236713274686221,0.06518378108739854,9.739513397216797,-1.150313973426819,-0.04856768995523453,0.013813571073114872,-0.03123280592262745
1706236713285641869,0.07887793332338335,9.755010604858398,-1.149271607398987,-0.04700300097465515,0.013814911246299744,-0.03443489968776703
1706236713294534628,0.07926532626152039,9.770586013793945,-1.153957009315491,-0.046293508261442184,0.012824850156903267,-0.03758146986365318
1706236713307478702,0.08134699612855913,9.752011299133303,-1.1585170030593874,-0.045964315533638,0.011403720825910568,-0.0405309833586216
1706236713315327758,0.0866660699248314,9.759771347045898,-1.1500582695007324,-0.04537635296583176,0.010505924932658672,-0.04319470748305321
1706236713324380665,0.07921717315912248,9.74728012084961,-1.145585536956787,-0.04408932104706764,0.010549775324761868,-0.0454324372112751
1706236713335208128,0.06352636218070984,9.755349159240724,-1.1218074560165407,-0.04220941290259361,0.011157072149217129,-0.046756818890571594
1706236713346047758,0.07132522016763689,9.755007743835451,-1.1160976886749268,-0.04054280370473862,0.011666646227240562,-0.04621643200516701
1706236713355951591,0.0789158269762993,9.747603416442873,-1.1385118961334229,-0.040081772953271866,0.011670934036374092,-0.04291485249996185
1706236713366261832,0.07391052693128587,9.760766029357912,-1.1323446035385134,-0.041095003485679626,0.01114040706306696,-0.03707671910524368
1706236713377531165,0.07652287930250169,9.757031440734865,-1.1199074983596804,-0.0429467037320137,0.01035103015601635,-0.030309801921248436
1706236713385007110,0.08409763872623444,9.741147994995117,-1.108194708824158,-0.0446895994246006,0.009705041535198689,-0.024334032088518143
1706236713396371387,0.07911155372858049,9.746925354003906,-1.125950813293457,-0.0455518513917923,0.009272187016904354,-0.01978306472301483
1706236713404966999,0.07582499086856842,9.74422359466553,-1.126223087310791,-0.04519153758883476,0.008638345636427402,-0.016519619151949883
1706236713415014499,0.06999103724956512,9.758365631103516,-1.1193162202835085,-0.04391084611415863,0.007463478483259678,-0.014483154751360416
1706236713425261554,0.07199876010417938,9.745894432067873,-1.128061056137085,-0.04255050793290138,0.005980238318443298,-0.013732208870351315
1706236713436790313,0.06959956139326097,9.74996852874756,-1.1391000747680664,-0.04197826236486435,0.0047610136680305,-0.014189104549586773
1706236713444963943,0.06726119667291643,9.75604248046875,-1.133260726928711,-0.04261485114693642,0.004190722480416298,-0.015779126435518265
1706236713454563758,0.06493445485830308,9.745232582092287,-1.1224046945571902,-0.04436788335442543,0.004327059723436832,-0.018368961289525032
1706236713465256739,0.061385415494441986,9.747564315795898,-1.095673203468323,-0.046866364777088165,0.004958732984960079,-0.021196626126766205
1706236713475051443,0.059454109519720084,9.742476463317873,-1.0771434307098389,-0.049710508435964584,0.005611410830169916,-0.022516394034028053
1706236713484716517,0.04987481608986855,9.762698173522951,-1.0618884563446045,-0.052640266716480255,0.0058344765566289425,-0.02009127475321293
1706236713494835461,0.06158260628581048,9.749874114990234,-1.0667904615402224,-0.055571623146533966,0.005667331628501415,-0.012412642128765583
1706236713504382184,0.06764601916074754,9.746517181396484,-1.0691254138946533,-0.05834601819515228,0.005559842102229595,0.0001304626202909276
1706236713514563406,0.06919695436954498,9.746868133544922,-1.0884699821472168,-0.060424644500017166,0.005736264865845442,0.014991731382906437
1706236713524708387,0.06061632186174393,9.738755226135256,-1.066991686820984,-0.06112890690565109,0.005905499216169119,0.028466802090406418
1706236713535430554,0.06364770978689195,9.750204086303711,-1.0542497634887695,-0.06029711663722992,0.0055984025821089745,0.037644606083631516
1706236713544335295,0.044685713946819305,9.757933616638185,-1.0533437728881836,-0.0585910826921463,0.004699298180639744,0.042021118104457855
1706236713554360813,0.05994074046611786,9.758946418762209,-1.0538291931152344,-0.05718931555747986,0.0037554854061454535,0.04328611120581627
1706236713564578498,0.05680207535624505,9.74851703643799,-1.0620349645614626,-0.05705885961651802,0.0036187926307320595,0.04363765940070152
1706236713575449517,0.05661682039499283,9.76239013671875,-1.0781289339065554,-0.058321163058280945,0.004687536973506212,0.0442684143781662
1706236713584385850,0.059239864349365234,9.763723373413086,-1.0793191194534304,-0.060334231704473495,0.006738404743373394,0.04490475729107857
1706236713594452702,0.07111408561468126,9.761032104492188,-1.0916523933410645,-0.06219277158379555,0.009375528432428837,0.04437774047255516
1706236713606113684,0.07634323090314867,9.756630897521974,-1.092160701751709,-0.06298256665468216,0.012214147485792637,0.04163077473640442
1706236713615288943,0.07487384229898454,9.752257347106935,-1.0828187465667725,-0.061952684074640274,0.014709463343024254,0.0364718995988369
1706236713625425350,0.0658695623278618,9.760319709777834,-1.0755439996719363,-0.05894635245203972,0.01623220182955265,0.029886186122894287
1706236713634603128,0.08208240568637848,9.761019706726076,-1.0716874599456787,-0.0546705462038517,0.0165003202855587,0.02378053404390812
1706236713644743480,0.07727371156215668,9.748904228210451,-1.0846631526947021,-0.05023550987243652,0.015794651582837105,0.020026441663503647
1706236713654359054,0.08531925082206726,9.747562408447266,-1.0922086238861084,-0.04640863835811615,0.014555025845766068,0.019290704280138016
1706236713664773887,0.09341248869895935,9.76138687133789,-1.0927066802978516,-0.04333268105983734,0.012990576215088367,0.020614812150597572
1706236713678210554,0.08319053053855896,9.766777992248537,-1.0855238437652588,-0.04069804400205612,0.011381114833056927,0.022214388474822044
1706236713684864461,0.07199614495038988,9.75227165222168,-1.0857088565826416,-0.03825287148356438,0.010362300090491772,0.02278321608901024
1706236713694951184,0.06909777224063873,9.749885559082031,-1.0681350231170654,-0.03635938838124275,0.010379699990153313,0.022207122296094894
1706236713704715832,0.0701061859726906,9.750194549560547,-1.0544054508209229,-0.03586188331246376,0.011080428957939148,0.021500924602150917
1706236713714750498,0.06770038604736328,9.770115852355959,-1.0515618324279785,-0.03732075169682503,0.011706700548529625,0.022279290482401848
1706236713725138980,0.05692579597234726,9.748178482055664,-1.0616998672485352,-0.04056911543011665,0.01194994617253542,0.025785213336348534
1706236713736172517,0.04738420993089676,9.74851703643799,-1.067423462867737,-0.04503856599330902,0.011962304823100567,0.03186335414648056
1706236713748508850,0.06843040138483049,9.773167610168459,-1.061659336090088,-0.05018019303679466,0.011834298260509968,0.038851168006658554
1706236713755182702,0.049373745918273926,9.766724586486818,-1.0313659906387331,-0.055355168879032135,0.011768764816224575,0.044805653393268585
1706236713764601350,0.03966369479894638,9.75967311859131,-1.07297945022583,-0.0598662793636322,0.012333023361861706,0.04888994246721268
1706236713774373128,0.04304793849587441,9.759961128234865,-1.020205616950989,-0.06352834403514862,0.01384050864726305,0.051432058215141296
1706236713784469146,0.040766641497612,9.76900863647461,-1.000612735748291,-0.06675441563129425,0.01590137556195259,0.05349600687623024
1706236713794761276,0.04780120402574539,9.751469612121584,-0.9927076101303101,-0.06990411877632141,0.017834870144724846,0.056982897222042084
1706236713805307646,0.044807817786932,9.77173709869385,-1.0126829147338867,-0.07284551858901978,0.019124392420053482,0.06382589042186737
1706236713814667720,0.06470585614442827,9.747810363769531,-1.0234621763229372,-0.0750289037823677,0.019540881738066673,0.07409630715847015
1706236713824543776,0.0886029824614525,9.779530525207521,-1.0347229242324831,-0.07557611167430878,0.01918000541627407,0.08529486507177353
1706236713835291406,0.06943194568157196,9.746813774108888,-1.0370711088180544,-0.07341160625219345,0.018427057191729546,0.09374009817838669
1706236713845307850,0.06757334619760515,9.762615203857422,-1.0163888931274414,-0.06808576732873917,0.01767474040389061,0.09681158512830734
1706236713855388813,0.06691651791334154,9.753177642822266,-1.017675042152405,-0.0606795959174633,0.016984842717647552,0.09448925405740738
1706236713865584128,0.08542442321777344,9.778510093688967,-1.0313127040863037,-0.053300973027944565,0.016283651813864708,0.08909600228071213
1706236713874906683,0.08840018510818481,9.76131820678711,-1.0359412431716921,-0.0475194975733757,0.015846047550439835,0.08341243863105774
1706236713885081943,0.072491891682148,9.77785396575928,-1.0347613096237185,-0.04358641803264618,0.016220444813370705,0.07899686694145203
1706236713895336128,0.0708315372467041,9.757267951965334,-1.039912223815918,-0.04112585261464119,0.01767541468143463,0.07602743804454803
1706236713904479109,0.07737620919942857,9.778880119323732,-1.036032319068909,-0.0399959459900856,0.019902599975466728,0.07402361929416656
1706236713914502591,0.07258710265159607,9.76502323150635,-1.0433932542800906,-0.040185075253248215,0.022280508652329445,0.07244550436735153
1706236713924753702,0.06125326082110406,9.76738166809082,-1.035441040992737,-0.041456155478954315,0.024277741089463234,0.07095349580049515
1706236713935294906,0.06433833390474321,9.768727302551271,-1.0218758583068848,-0.043523918837308884,0.02555271051824093,0.06956882029771805
1706236713951780276,0.045273080468177795,9.77171039581299,-0.9886748790740967,-0.0463147833943367,0.025988249108195305,0.06898017972707748
1706236713954789498,0.05315572395920754,9.76258182525635,-0.9715252518653871,-0.04993052035570145,0.025761980563402176,0.07074569910764694
1706236713965201461,0.06758458912372589,9.75579357147217,-0.970641314983368,-0.05430794134736061,0.025103215128183365,0.07670678943395615
1706236713974591646,0.060009967535734184,9.760517120361328,-0.9486897587776185,-0.05875243991613388,0.02397790364921093,0.08771044760942459
1706236713984613869,0.07306012511253357,9.76019287109375,-0.9494032859802246,-0.06205030903220177,0.022246917709708214,0.10289905965328217
1706236714000443165,0.06197880208492279,9.775034904479982,-0.9709437489509584,-0.06322373449802399,0.02012394368648529,0.1199999675154686
1706236714005714739,0.06789460033178331,9.76626205444336,-0.9672058820724487,-0.06212429329752922,0.018328728154301643,0.13587231934070587
1706236714015490924,0.04485880583524704,9.752056121826172,-0.9655661582946777,-0.05955163389444351,0.017581051215529442,0.14741644263267517
1706236714026010813,0.06218115985393524,9.748331069946289,-0.9498434066772461,-0.056960005313158035,0.01778765209019184,0.1530282348394394
1706236714038669554,0.05277063325047494,9.764852523803711,-0.9392802715301514,-0.05571001395583153,0.018010687083005905,0.1535181850194931
1706236714047185572,0.0358111821115017,9.76246452331543,-0.9362883567810059,-0.05641584470868111,0.01749195158481598,0.1516176164150238
1706236714055034757,0.037757154554128654,9.774933815002443,-0.9252166152000428,-0.05909670144319534,0.01645658351480961,0.15046410262584686
1706236714067911517,0.051090843975543976,9.77596187591553,-0.9320214390754701,-0.06347008049488068,0.015877434983849525,0.1521410495042801
1706236714075441831,0.04758111760020257,9.772581100463867,-0.9283390045166016,-0.06868401914834976,0.016710171476006508,0.15700319409370422
1706236714085928776,0.052678283303976066,9.774615287780763,-0.9515315294265747,-0.07331513613462448,0.019232165068387985,0.16377349197864532
1706236714096100054,0.06524596363306047,9.744294166564943,-0.9865989089012147,-0.07600966840982437,0.02273942343890667,0.1699615865945816
1706236714105169035,0.07344301044940948,9.792572975158693,-0.9964072108268739,-0.07593131810426712,0.025847233831882477,0.17241457104682922
1706236714115334683,0.0766449123620987,9.76724147796631,-0.9874585866928101,-0.07279899716377258,0.02755400910973549,0.16854611039161682
1706236714124511517,0.07702639698982239,9.801714897155763,-1.0248620510101318,-0.06696426123380661,0.02813286893069744,0.15788108110427856
1706236714135796665,0.093781977891922,9.739593505859375,-1.0187603235244753,-0.05939971283078194,0.028593219816684723,0.14219748973846436
1706236714145383480,0.06993557512760162,9.793218612670898,-0.9666081666946411,-0.0513673797249794,0.029364166781306267,0.12458623200654984
1706236714159719980,0.08177676796913147,9.774949073791506,-0.950797736644745,-0.0441674180328846,0.030107928439974785,0.10920529812574387
1706236714164733887,0.0516248680651188,9.758759498596193,-0.9654042124748231,-0.03909101337194443,0.030552484095096588,0.10065120458602905
1706236714175413998,0.004591106437146664,9.761104583740234,-0.9401558041572572,-0.03751440346240997,0.03051682934165001,0.1016717180609703
1706236714185141368,0.026014735922217373,9.797823905944826,-0.8757714033126831,-0.04100047051906586,0.02970353700220585,0.11189387738704681
1706236714195391591,-0.017467916011810303,9.796361923217773,-0.8352105617523193,-0.0505867600440979,0.028557289391756058,0.12957772612571716
1706236714204951183,0.01550207380205393,9.760358810424805,-0.9150139093399048,-0.0656362995505333,0.028430407866835594,0.15318317711353302
1706236714216110905,0.029822034761309627,9.771176338195803,-0.9381897449493408,-0.08345268666744232,0.029966099187731743,0.17967265844345093
1706236714234680405,0.11267227679491044,9.755098342895508,-1.0471874475479128,-0.10881374031305313,0.0345020517706871,0.2146887481212616
1706236714245105813,0.12027882039546967,9.78951168060303,-1.0295659303665163,-0.1067827120423317,0.036061059683561325,0.2099951058626175
1706236714255106794,0.13963726162910461,9.714962959289553,-1.0611301660537722,-0.09203916788101196,0.036479126662015915,0.1878044158220291
1706236714265176350,0.11932479590177537,9.77773189544678,-1.037424445152283,-0.06704491376876831,0.03474795073270798,0.1527271419763565
1706236714275162202,0.1067996621131897,9.775275230407717,-0.9604142904281616,-0.03762534260749817,0.030372340232133865,0.11365000158548355
1706236714335480591,0.1123572438955307,9.767681121826172,-1.0714668035507204,-0.01569618284702301,0.01773628406226635,0.09720270335674286
1706236714424602387,0.18900316953659058,9.73729991912842,-1.0579612255096436,0.03903218358755112,0.02127099223434925,0.09507416188716888
1706236714435625128,0.1819863170385361,9.789323806762695,-1.080646872520447,0.05628669634461403,0.014806665480136871,0.09466692805290222
1706236714475263516,0.1410602331161499,9.806234359741211,-1.1218537092208865,0.06874695420265198,0.019827863201498985,0.03094644844532013
1706236714504452979,0.16695630550384521,9.740475654602053,-1.1479501724243164,0.057342782616615295,0.028279012069106102,0.015766706317663193
1706236714535487702,0.16544756293296814,9.758013725280763,-1.0948889255523682,0.04502066597342491,0.03561712056398392,0.003556429175660014
1706236714544426127,0.165947824716568,9.748204231262209,-1.0803858041763308,0.03531114384531975,0.038947127759456635,-0.005753489676862955
1706236714564706831,0.18062183260917664,9.756750106811523,-1.1409974098205566,0.03106996789574623,0.029976902529597282,-0.011890348978340626
1706236714575207164,0.1540503203868866,9.762867927551271,-1.1874393224716189,0.0355406291782856,0.02129836194217205,-0.009926395490765572
1706236714744789701,0.16180197894573214,9.715835571289062,-1.228461742401123,0.01935892179608345,0.00681356992572546,-0.13351713120937347
1706236714754855424,0.15107382833957675,9.73035526275635,-1.2258106470108034,0.02573239989578724,0.002734089270234108,-0.14831985533237457
1706236714765718183,0.15844318270683289,9.740205764770508,-1.2322095632553103,0.02906803973019123,-0.0035389019176363945,-0.15154068171977997
1706236714774511053,0.13554163277149203,9.734853744506836,-1.252129316329956,0.030540749430656433,-0.01024615578353405,-0.14591285586357117
1706236714784637664,0.11921020597219469,9.730517387390138,-1.2768613100051882,0.030855119228363037,-0.0152447409927845,-0.13667996227741241
1706236714794808942,0.09811753034591675,9.739347457885742,-1.2919526100158691,0.029526542872190475,-0.01735580340027809,-0.12968578934669495
1706236714805115794,0.10538999736309052,9.756236076354982,-1.2956413030624392,0.0253281407058239,-0.016619212925434113,-0.1293790191411972
1706236714815246775,0.12939223647117615,9.739673614501953,-1.297800660133362,0.017729822546243668,-0.01361180655658245,-0.13724523782730103
1706236714825355905,0.13077375292778015,9.736927986145021,-1.277276396751404,0.008174988441169262,-0.009174538776278496,-0.15140776336193085
1706236714835660572,0.1333163231611252,9.732200622558594,-1.2705115079879763,-0.0002895804063882679,-0.004633753560483456,-0.16752848029136658
1706236714844900775,0.1392449885606766,9.731853485107422,-1.243349313735962,-0.004847778007388115,-0.0015188143588602543,-0.18051235377788544
1706236714854939979,0.15265896916389465,9.719017028808594,-1.237387299537659,-0.004319782834500074,-0.0008672961266711354,-0.18630298972129822
1706236714865938498,0.1588462144136429,9.713272094726562,-1.2139575481414795,0.000858062063343823,-0.002963836770504713,-0.18308377265930176
1706236714876168220,0.13616330921649936,9.706170082092287,-1.1957693099975586,0.00920889526605606,-0.007551048882305622,-0.17146004736423492
1706236714885070387,0.13636539876461032,9.73280429840088,-1.166923999786377,0.018455607816576958,-0.013889915309846401,-0.15362651646137238
1706236714895114887,0.11545653641223907,9.722668647766115,-1.152437448501587,0.025834599509835243,-0.020541707053780556,-0.13215278089046478
1706236714904624220,0.09827638417482377,9.740856170654297,-1.1341398954391482,0.02887115254998207,-0.025581935420632362,-0.10921431332826614
1706236714915342720,0.07983826100826263,9.742478370666506,-1.1013221740722656,0.02604757435619831,-0.027413368225097656,-0.08634583652019501
1706236714924598312,0.05476980656385422,9.751173973083498,-1.0751125812530518,0.01700368896126747,-0.025384970009326935,-0.06422393023967743
1706236714934846090,0.050413280725479126,9.75312900543213,-1.0466121435165407,0.002456796122714877,-0.01988382078707218,-0.04253833368420601
1706236714946179053,0.059271533042192466,9.75277328491211,-1.0239237546920779,-0.015837378799915314,-0.012122818268835545,-0.020383788272738457
1706236714955072238,0.05813193693757058,9.751345634460451,-1.004103422164917,-0.035066887736320496,-0.0037616973277181387,0.0030001255217939615
1706236714965270220,0.043566282838583,9.73173713684082,-0.975514590740204,-0.05198727175593376,0.0034602442756295204,0.0277226734906435
1706236714974601868,0.05325017124414444,9.753974914550781,-0.9588321447372437,-0.06426934897899628,0.00806978065520525,0.05327638238668442
1706236714986099757,0.082917720079422,9.726315498352053,-0.972368597984314,-0.07114194333553314,0.009343419224023819,0.07870552688837051
1706236714994765405,0.08738692104816437,9.729039192199709,-0.9981645345687866,-0.07266037166118622,0.007482738234102726,0.1022661104798317
1706236715004800794,0.09937511384487152,9.723670005798342,-1.0083118677139284,-0.06901873648166656,0.003195480676367879,0.1210898756980896
1706236715015183423,0.09978216886520386,9.74662971496582,-1.0136855840682986,-0.060841165482997894,-0.0025185851845890284,0.13205592334270477
1706236715025418294,0.10397931188344957,9.733117103576662,-1.0285580158233643,-0.04960019141435623,-0.008196946233510971,0.1335335224866867
1706236715034623090,0.09987360984086992,9.7489709854126,-1.015273451805115,-0.03743625432252884,-0.01221273560076952,0.12639866769313812
1706236715044578423,0.08767177909612657,9.756348609924318,-0.9991890788078309,-0.026633812114596367,-0.013444067910313606,0.1138625368475914
1706236715054621146,0.07228948175907135,9.77419662475586,-0.9887812733650209,-0.019206896424293518,-0.011449920013546944,0.10060373693704605
1706236715065456738,0.0783820077776909,9.766388893127443,-0.9632917046546937,-0.01656251586973667,-0.006285723298788071,0.09136754274368286
1706236715074828109,0.07433522492647172,9.770068168640138,-0.946471393108368,-0.018971208482980728,0.0013928704429417849,0.08952724933624268
1706236715091294720,0.0805901288986206,9.754880905151367,-0.953727126121521,-0.02521621249616146,0.010123132728040218,0.09621035307645798
1706236715094681627,0.10462991148233415,9.772763252258303,-0.9526311159133911,-0.03287995979189873,0.01794939674437046,0.10994205623865128
1706236715105104683,0.10476073622703552,9.77072525024414,-0.950074315071106,-0.039027418941259384,0.0233517587184906,0.1270756721496582
1706236715115782294,0.08618054538965227,9.779118537902834,-0.9297952055931092,-0.0412852019071579,0.026055000722408295,0.1434122920036316
1706236715124593164,0.11315646022558214,9.772009849548342,-0.9066817164421083,-0.03905295208096504,0.02691807597875595,0.15626822412014008
1706236715134928997,0.11313996464014055,9.783430099487305,-0.8918735384941102,-0.03348543122410774,0.02714689075946808,0.16558405756950378
1706236715153104757,0.09606868773698808,9.782417297363281,-0.8896384239196777,-0.026347577571868896,0.027692507952451706,0.17329798638820648
1706236715160369886,0.10341159254312517,9.7766809463501,-0.889684796333313,-0.019403725862503052,0.02904626913368702,0.18153248727321625
1706236715165181053,0.10614928603172302,9.79383945465088,-0.8697195649147035,-0.014222919940948486,0.031199926510453224,0.19116786122322083
1706236715185518368,0.08390146493911743,9.788116455078125,-0.9015836715698242,-0.011793888173997402,0.03688138350844383,0.2119070142507553
1706236715195482016,0.09265120327472687,9.795543670654297,-0.9139327406883241,-0.014293021522462368,0.03997969254851341,0.21967031061649323
1706236715208057997,0.11863560974597931,9.77902603149414,-0.9328426718711854,-0.018386000767350197,0.04283275827765465,0.22291801869869232
1706236715217223738,0.08270891010761261,9.78068733215332,-0.9340559840202333,-0.022547969594597816,0.04493412375450134,0.22031491994857788
1706236715225306701,0.09197498112916948,9.786092758178711,-0.9259493350982666,-0.025313641875982285,0.04573267325758934,0.21208129823207855
1706236715237834349,0.10441199690103532,9.789757728576662,-0.9224268794059755,-0.026342106983065605,0.04507794603705406,0.20027950406074524
1706236715244583868,0.10348380357027055,9.771216392517092,-0.9270071983337402,-0.026066076010465622,0.04345047101378441,0.18817947804927826
1706236715254744312,0.10318810492753984,9.78941535949707,-0.9179909825325013,-0.02482299692928791,0.04150603339076042,0.17882919311523438
1706236715266178312,0.10998874157667161,9.791788101196289,-0.9244683384895326,-0.022797754034399986,0.039747219532728195,0.17388604581356049
1706236715274702405,0.10894501209259033,9.788434982299805,-0.9549429416656494,-0.0202318262308836,0.0387016162276268,0.17317712306976318
1706236715287694590,0.11688059568405151,9.79050922393799,-0.9962730407714844,-0.01737409085035324,0.03882386535406113,0.17451851069927216
1706236715294819405,0.08709853887557983,9.782753944396974,-1.0176851749420166,-0.014528101310133934,0.040081582963466644,0.17401160299777985
1706236715305371608,0.10989855229854584,9.795956611633303,-1.0578202009201052,-0.012292900122702122,0.041926492005586624,0.1674625724554062
1706236715314602849,0.09045895189046861,9.782816886901857,-1.0694102048873904,-0.01141677238047123,0.04370330646634102,0.1522703468799591
1706236715324645034,0.07622038573026658,9.779404640197756,-1.041234016418457,-0.012367203831672668,0.044920433312654495,0.12877844274044037
1706236715335468738,0.06653685122728349,9.77834224700928,-1.0187822580337527,-0.015410389751195908,0.045169055461883545,0.10089549422264099
1706236715347775979,0.08160053193569183,9.788843154907227,-1.0206248760223389,-0.02070825919508934,0.044211506843566895,0.07521352916955948
1706236715355430923,0.07771930843591691,9.781099319458008,-1.0504209995269775,-0.02776317670941353,0.04232329502701759,0.05790964514017105
1706236715365200627,0.08771771192550659,9.77271366119385,-1.0875637531280518,-0.03509832173585892,0.040176160633563995,0.05109202489256859
1706236715375482571,0.09439395368099213,9.765350341796875,-1.1085313558578493,-0.04081451892852783,0.038177333772182465,0.05150974914431572
1706236715384786238,0.07936221361160278,9.770085334777834,-1.1267336606979372,-0.04349004104733467,0.03613676875829697,0.05268646776676178
1706236715394902423,0.06467761099338531,9.775472640991211,-1.113698959350586,-0.04301013797521591,0.033721234649419785,0.0488043837249279
1706236715405619312,0.05183930695056915,9.770726203918459,-1.1130934953689577,-0.040939439088106155,0.031049245968461037,0.03774463012814522
1706236715427687590,0.03795907646417618,9.76094150543213,-1.1088266372680664,-0.03989170491695404,0.028602872043848038,0.021641423925757408
1706236715427784182,0.02466625533998013,9.776775360107422,-1.0786129236221316,-0.04225267097353935,0.02670086920261383,0.005171369761228561
1706236715444880127,0.026012552902102474,9.764981269836428,-1.0937801599502566,-0.05981867387890816,0.024725506082177162,-0.011000473983585835
1706236715455209923,0.022289814427495006,9.749124526977539,-1.0889689922332764,-0.07221074402332306,0.024436937645077705,-0.007474331650882959
1706236715472637516,0.018229385837912563,9.75991439819336,-1.0736463069915771,-0.08380333334207535,0.023879388347268105,0.0010895796585828066
1706236715483352757,0.01852229051291943,9.753522872924805,-1.094947099685669,-0.09285443276166916,0.022364482283592224,0.011074849404394627
1706236715486539294,0.015428354032337667,9.737024307250977,-1.1065481901168825,-0.09876707941293716,0.01967533491551876,0.019442619755864143
1706236715494722090,0.001340719172731042,9.756213188171388,-1.093496561050415,-0.10195281356573105,0.01599578931927681,0.02407711185514927
1706236715506439405,0.01346430554986,9.749162673950195,-1.116528034210205,-0.10351019352674484,0.01179389376193285,0.024089915677905083
1706236715514870127,0.0056903534568846234,9.761658668518068,-1.1142729520797732,-0.10463817417621613,0.00793004222214222,0.01996784657239914
1706236715524963645,0.023159820586442947,9.743113517761232,-1.1194685697555544,-0.10596073418855667,0.005359223112463951,0.01303848996758461
1706236715535386145,0.03782941773533822,9.759366989135742,-1.1460764408111572,-0.10718115419149399,0.0045051854103803635,0.004757970105856657
1706236715545442497,0.04920296370983124,9.75564479827881,-1.1414717435836794,-0.10715828090906143,0.005108664743602276,-0.0038874149322509766
1706236715555755571,0.10747149586677551,9.750912666320803,-1.118927001953125,-0.10423873364925385,0.006605731789022684,-0.012409456074237823
1706236715566117256,0.16315603256225586,9.728610038757326,-1.090677857398987,-0.0963233932852745,0.0082551259547472,-0.01986588165163994
1706236715578487979,0.20546810328960421,9.746512413024904,-1.0687946081161501,-0.08081532269716263,0.009021283127367496,-0.02411668375134468
1706236715586157368,0.2197670340538025,9.742767333984375,-1.0354981422424316,-0.05563322827219963,0.008058400824666023,-0.022444970905780792
1706236715595025608,0.21065589785575867,9.754603385925295,-1.0618348121643066,-0.021236050873994827,0.005512821488082409,-0.013111892156302929
1706236715605005053,0.22249715030193332,9.756628990173342,-1.052674174308777,0.01825045235455036,0.00257575954310596,0.0031069868709892035
1706236715615171182,0.2068462371826172,9.768788337707521,-1.0599496364593506,0.05624167621135712,0.0008021658868528903,0.022628244012594223
1706236715625263219,0.21272853016853333,9.764088630676271,-1.0816426277160645,0.08641225099563599,0.0013725716853514314,0.04055636748671532
1706236715635596590,0.199167475104332,9.761694908142092,-1.0660889148712158,0.10496989637613297,0.004553517326712608,0.052717532962560654
1706236715644865682,0.18538925051689148,9.774835586547852,-1.0769995450973513,0.11139439791440964,0.009576274082064629,0.05712078884243965
1706236715654978831,0.22194355726242065,9.796855926513672,-1.07871675491333,0.1079321801662445,0.015309507958590984,0.05444152653217316
1706236715665275831,0.08920495957136156,9.654236793518068,-1.0300979614257812,0.09821383655071259,0.020568225532770157,0.047451578080654144
1706236715679833793,0.04037444293498993,9.840796470642092,-1.1585210561752322,0.08442571759223938,0.02349076047539711,0.03958724066615105
1706236715685518923,0.16094021499156955,9.64357662200928,-1.0418499708175661,0.06582344323396683,0.022361338138580322,0.032882627099752426
1706236715700610516,0.26910260319709783,9.94103527069092,-0.9260057210922241,0.04309961572289467,0.017777789384126663,0.028346825391054153
1706236715705171460,0.414894849061966,9.668842315673828,-0.9945013523101807,0.024277660995721817,0.01325774472206831,0.029167653992772102
1706236715714627979,-5.468327522277832,8.873389244079592,-4.01722526550293,-0.005121482536196709,0.008029250428080559,0.02509157918393612
1706236715725313960,-3.333914279937744,10.879056930541992,-4.130352497100831,-0.14805428683757782,-0.007287212181836367,-0.048054289072752
1706236715734717553,5.392394542694093,8.88454341888428,2.9866974353790288,-0.5179726481437683,-0.033150263130664825,-0.26633360981941223
1706236715744877497,3.313516139984131,9.986593246459961,1.833665132522583,-0.983912467956543,-0.055437665432691574,-0.5489012002944946
1706236715755259627,-0.9199844598770142,9.91533946990967,-1.914837718009949,-1.1723562479019165,-0.06551899760961533,-0.6408233642578125
1706236715765518201,0.6827142238616943,9.421674728393555,-0.5374408960342407,-0.8595011234283447,-0.06291040033102036,-0.38355398178100586
1706236715775628516,0.32005485892295843,10.104589462280273,-1.0477336645126345,-0.1956086903810501,-0.048710618168115616,0.10934139043092728
1706236715785583423,0.5144302845001221,9.741720199584961,-0.5300724506378174,0.49071887135505676,-0.026476707309484482,0.5925665497779846
1706236715794707442,0.5685827732086182,9.823933601379396,-1.3427549600601199,0.9500281810760498,0.0012806570157408714,0.8853722214698792
1706236715804993645,0.35237655043601995,9.292927742004396,-0.8044547438621522,1.0981372594833374,0.02940826304256916,0.9313304424285889
1706236715815102256,0.2545324265956879,10.049598693847656,-0.9637660980224609,0.9846178889274597,0.044690728187561035,0.7735855579376221
1706236715825243812,0.3651934862136841,9.660453796386719,-0.5536952018737793,0.7230936884880066,0.03811408951878548,0.5130261182785034
1706236715835383238,0.06985229253768921,10.33620357513428,-0.5705824494361879,0.4301990270614624,0.019434086978435516,0.26393923163414
1706236716155467849,0.12955506145954135,9.798149108886719,-1.0147603750228884,0.39057615399360657,0.022612428292632103,-0.012864756397902966
1706236716194975478,0.22262054681777954,9.698716163635256,-1.0288727283477783,0.06861453503370285,0.07044409960508347,0.022524790838360786
1706236716205653515,0.24708446860313416,9.736819267272951,-1.0071202516555788,0.024040810763835907,0.0628361701965332,0.046499256044626236
1706236716235124941,0.2922842502593994,9.694398880004883,-1.0386600494384766,0.07879256457090378,-0.008662877604365349,0.09134649485349655
1706236716254860904,0.29396787285804754,9.712574005126953,-1.0438758134841921,0.15903612971305847,-0.04390992596745491,0.09121519327163696
1706236716265167404,0.2581155300140381,9.74692153930664,-1.0366011857986452,0.18330372869968414,-0.04873312637209892,0.0849156454205513
1706236716276121478,0.23577706515789035,9.704776763916016,-1.042589068412781,0.19287002086639404,-0.04583439603447914,0.07730879634618759
1706236716285170349,0.2050857096910477,9.714081764221193,-1.0134948492050173,0.18856798112392426,-0.038003191351890564,0.0705234631896019
1706236716295942571,0.17249152064323425,9.723884582519531,-0.993877947330475,0.17282000184059143,-0.029074689373373985,0.0664895549416542
1706236716305174071,0.163241446018219,9.737018585205078,-0.9892151951789857,0.14883579313755035,-0.02220454253256321,0.06695284694433212
1706236716320350923,0.15455138683319092,9.70637321472168,-0.987858772277832,0.12025187164545059,-0.01850435510277748,0.0728510394692421
1706236716327691793,0.1650599390268326,9.70198154449463,-0.9797960519790649,0.09105653315782547,-0.017683301120996475,0.08349080383777618
1706236716339715849,0.16228371858596802,9.711803436279297,-0.9811050891876221,0.0652783066034317,-0.019350990653038025,0.09667116403579712
1706236716344784441,0.18405422568321228,9.722260475158693,-0.9944082498550415,0.04624512419104576,-0.023002520203590393,0.10960832238197327
1706236716354694849,0.194530263543129,9.729022026062013,-0.9995359182357788,0.035912156105041504,-0.02733713574707508,0.1197228655219078
1706236716372443108,0.21972669661045077,9.728033065795898,-1.0126242637634277,0.03470483049750328,-0.030474413186311722,0.1251266449689865
1706236716374771886,0.21516077220439914,9.708406448364258,-1.000085234642029,0.041685253381729126,-0.031085511669516563,0.1250971406698227
1706236716385555367,0.2441854923963547,9.724618911743164,-1.0067301988601687,0.05477623641490936,-0.029309462755918503,0.12043416500091553
1706236716395301960,0.26585817337036133,9.720160484313967,-0.989747703075409,0.07137499749660492,-0.026446808129549026,0.1132967472076416
1706236716404912645,0.26971131563186646,9.704627037048342,-0.9878107309341431,0.08931224048137665,-0.023905308917164803,0.10645445436239243
1706236716414697663,0.2537069320678711,9.681339263916016,-0.9794579148292543,0.10706660896539688,-0.022842684760689735,0.10234664380550385
1706236716424772256,0.25250610709190374,9.688073158264162,-0.9741137027740479,0.12303754687309265,-0.024393795058131218,0.10233095288276672
1706236716435825886,0.22376783192157748,9.704601287841797,-0.960585355758667,0.13515885174274445,-0.029169708490371704,0.10644978284835815
1706236716445634423,0.2062583863735199,9.711352348327638,-0.9695839285850526,0.14132364094257355,-0.036230456084012985,0.11373830586671829
1706236716454978589,0.18849563598632812,9.716787338256836,-0.969185471534729,0.14004403352737427,-0.04309207201004028,0.12259411066770554
1706236716466416404,0.16797170042991638,9.750822067260742,-0.9519896507263184,0.13102902472019196,-0.04694269225001335,0.1311764270067215
1706236716475513423,0.15804249048233032,9.76906967163086,-0.9718258976936341,0.11542468518018723,-0.04562874883413315,0.1380745768547058
1706236716485004904,0.15133030712604525,9.770425796508789,-0.9867540597915649,0.09556061774492264,-0.038037434220314026,0.14254187047481537
1706236716495203700,0.16465745866298678,9.75320053100586,-0.9845834374427797,0.074498251080513,-0.024711281061172485,0.14403896033763885
1706236716505004404,0.1745958924293518,9.748486518859865,-1.0016801357269287,0.05560801178216934,-0.008393275551497936,0.14214366674423218
1706236716515391737,0.19727428257465365,9.740710258483888,-0.9928185343742372,0.042068932205438614,0.006683100014925003,0.13699927926063538
1706236716529242941,0.22167752683162692,9.744081497192383,-0.993826448917389,0.036275915801525116,0.016683153808116913,0.12957827746868134
1706236716535030552,0.24077552556991577,9.724504470825195,-0.9862117767333984,0.03937792032957077,0.019776292145252228,0.1215730756521225
1706236716545788200,0.23784650862216952,9.721450805664062,-0.9621057510375977,0.05093993619084358,0.016340652480721474,0.11502887308597565
1706236716555021015,0.2538069486618042,9.738296508789062,-0.9475210905075073,0.0687391608953476,0.008247281424701214,0.11196281015872955
1706236716575708978,0.2486661970615387,9.75147342681885,-0.9526656866073608,0.08920202404260635,-0.001652877894230187,0.11388512700796127
1706236716575804571,0.2467089295387268,9.74440097808838,-0.9583691358566284,0.10850361734628677,-0.010032105259597301,0.12093029916286469
1706236716585145348,0.23359172046184543,9.742366790771484,-0.9763616323471069,0.12353790551424026,-0.014324498362839222,0.1312202364206314
1706236716597215886,0.21254214644432068,9.747439384460451,-0.9897466897964478,0.1323109269142151,-0.01391472015529871,0.14129607379436493
1706236716607221997,0.20211756229400635,9.775447845458984,-0.9982653856277466,0.1339331716299057,-0.009892174042761326,0.14747507870197296
1706236716616002737,0.17641589045524597,9.770742416381836,-1.015571117401123,0.12851883471012115,-0.003674616338685155,0.14732328057289124
1706236716625655441,0.17798741161823275,9.779517173767092,-1.0148936510086062,0.11711149662733078,0.0038366655353456736,0.14044150710105896
1706236716637775515,0.17280529439449313,9.775425910949709,-1.0084240436553955,0.10163604468107224,0.011991395615041256,0.12842957675457
1706236716644809941,0.1773130148649216,9.779809951782227,-0.9958515763282777,0.08476990461349487,0.019977331161499023,0.11440354585647583
1706236716655761274,0.18112704157829285,9.783153533935547,-0.9736387133598329,0.06946069747209549,0.026915935799479485,0.10220133513212204
1706236716667996311,0.1944057494401932,9.774030685424805,-0.966019093990326,0.058205198496580124,0.03218153491616249,0.09532244503498077
1706236716675896367,0.19190654158592224,9.779104232788086,-0.9652661085128784,0.05248869210481644,0.03550712764263153,0.09578411281108856
1706236716685122608,0.21570660173892978,9.765608787536623,-0.9674944877624512,0.052549026906490326,0.03687852993607521,0.10326829552650452
1706236716695227515,0.228565514087677,9.762239456176758,-0.9791921973228456,0.05764139071106911,0.03639626130461693,0.11514194309711456
1706236716704763737,0.24423235654830933,9.756900787353516,-1.0064409971237185,0.06667672842741013,0.03417330980300903,0.12736386060714722
1706236716715525163,0.23079331219196322,9.760592460632326,-1.0040718317031863,0.0784941092133522,0.030426494777202606,0.1357627958059311
1706236716724742459,0.23728030920028687,9.77480697631836,-1.0273224115371706,0.09153574705123901,0.025781799107789993,0.1374114751815796
1706236716734815163,0.22081199288368225,9.764982223510742,-1.0182743072509766,0.10368893295526505,0.021406609565019608,0.13162942230701447
1706236716745598145,0.20708996057510376,9.786572456359865,-1.0189032554626465,0.11269822716712952,0.01862371154129505,0.12009455263614655
1706236716754996015,0.20574994385242465,9.784542083740234,-1.0144798755645752,0.11677616834640503,0.01837177947163582,0.10614094883203506
1706236716766714015,0.19965921342372897,9.77910900115967,-1.0082255601882937,0.11522635072469711,0.02090892195701599,0.09352200478315353
1706236716775001811,0.19622868299484253,9.776743888854982,-1.0007504224777224,0.10882516205310822,0.025582684203982353,0.0851440355181694
1706236716786388700,0.19037736952304843,9.780104637145998,-0.9957452416419984,0.09949362277984619,0.030920349061489105,0.08236918598413467
1706236716795649756,0.1833387464284897,9.783145904541016,-1.0007430315017702,0.08942586928606033,0.035372450947761536,0.08491741865873337
1706236716806319830,0.18751449882984164,9.783174514770508,-1.0134445428848269,0.08032192289829254,0.038108568638563156,0.09106660634279251
1706236716815157126,0.18723689019680026,9.778486251831055,-1.0247522592544558,0.07315050065517426,0.03916282206773758,0.09807226806879044
1706236716825587237,0.19521376490592957,9.7808837890625,-1.0395610332489014,0.06834452599287033,0.039021674543619156,0.10292098671197891
1706236716835017496,0.20446290075778964,9.776507377624513,-1.0408834218978884,0.06607329845428467,0.03820382431149483,0.1033182442188263
1706236716845134922,0.2080359905958176,9.78256607055664,-1.0393757820129395,0.06639643758535385,0.03711555898189545,0.09854967892169952
1706236716855100811,0.21078139543533325,9.778156280517578,-1.0433576107025146,0.06919527798891068,0.03607560694217682,0.0897635966539383
1706236716866432274,0.20975910127162936,9.777166366577148,-1.0437922477722168,0.0739530622959137,0.035306159406900406,0.07935743033885956
1706236716875336145,0.22745396196842196,9.778167724609375,-1.04170823097229,0.07977524399757385,0.03484875708818436,0.06983622163534164
1706236716884900533,0.22456952929496765,9.780496597290039,-1.0327097177505495,0.0858210027217865,0.034598592668771744,0.06298397481441498
1706236716894931459,0.2149468958377838,9.773428916931154,-1.036581873893738,0.09157109260559082,0.034447044134140015,0.059638459235429764
1706236716905627367,0.2095111906528473,9.77173709869385,-1.0296988487243652,0.09649626165628433,0.034266017377376556,0.05973251909017563
1706236716914653922,0.200787752866745,9.771763801574709,-1.0389770269393923,0.0997503474354744,0.03382229059934616,0.06241381913423538
1706236716925546904,0.18783143162727356,9.770071029663086,-1.0426553487777712,0.10040794312953949,0.032895032316446304,0.06627623736858368
1706236716934727330,0.17990371584892273,9.769060134887695,-1.0520795583724978,0.09786106646060944,0.031458623707294464,0.06967901438474655
1706236716944755237,0.17422601580619812,9.773821830749513,-1.062251687049866,0.09206366539001465,0.029713457450270653,0.07113134115934372
1706236716955079015,0.17494577169418335,9.77141857147217,-1.0571752786636355,0.08367620408535004,0.028025785461068153,0.06970946490764618
1706236716965162811,0.17351743578910828,9.786627769470217,-1.0566318035125732,0.07403497397899628,0.026861095800995827,0.06545121967792511
1706236716974794996,0.1928334087133408,9.777175903320312,-1.0585713386535645,0.0648999884724617,0.026700535789132118,0.0594518817961216
1706236716986370126,0.19675968587398532,9.775848388671875,-1.0683338642120361,0.05814141780138016,0.027790281921625137,0.05329826474189758
1706236716995245533,0.21154300868511203,9.775154113769531,-1.0529143810272217,0.05535063147544861,0.029811205342411995,0.0482398122549057
1706236717005607682,0.198418065905571,9.76669692993164,-1.0567116737365723,0.05725076049566269,0.03192540630698204,0.04492560774087906
1706236717015711367,0.20331519842147827,9.74882221221924,-1.0498299598693848,0.06316188722848892,0.0330972895026207,0.043620411306619644
1706236717024659478,0.22446615993976596,9.754250526428224,-1.0582964420318604,0.07121542096138,0.03232570365071297,0.0442473404109478
1706236717038655552,0.20096762478351596,9.76066303253174,-1.0577787160873415,0.07940162718296051,0.029088521376252174,0.046244967728853226
1706236717045387274,0.2002278119325638,9.737384796142578,-1.054948687553406,0.08622775971889496,0.02382603846490383,0.04866518825292587
1706236717055633182,0.19630648195743564,9.762701034545898,-1.0647767782211306,0.09056414663791656,0.017691031098365784,0.05057520791888237
1706236717065578978,0.17193937301635742,9.763413429260256,-1.065892219543457,0.09160227328538895,0.012029901146888733,0.051346052438020706
1706236717074730830,0.1764671802520752,9.77046298980713,-1.0618168115615847,0.08900358527898788,0.008230830542743206,0.05070178210735321
1706236717084762533,0.16431246697902682,9.78127670288086,-1.0738584995269775,0.08298229426145554,0.007429434917867184,0.04876463860273361
1706236717094809867,0.16087092459201816,9.773853302001953,-1.067662239074707,0.07440117746591568,0.01001330278813839,0.04596702381968498
1706236717105187163,0.16375213861465454,9.762371063232422,-1.0755913257598877,0.06463152915239334,0.015298103913664818,0.04280265420675278
1706236717115338478,0.16822277009487155,9.760342597961428,-1.0668513774871826,0.05524013563990593,0.021504579111933708,0.03971177712082863
1706236717125364774,0.17470975220203402,9.753608703613281,-1.06776762008667,0.04774795472621918,0.026362134143710136,0.03711884841322899
1706236717135589052,0.18137504160404208,9.752251625061037,-1.0621420145034792,0.04335665702819824,0.028147395700216293,0.03545331582427025
1706236717145109293,0.1858543306589127,9.743493080139162,-1.0643824338912966,0.04265226796269417,0.026334863156080246,0.035041555762290955
1706236717155179256,0.1879008710384369,9.743844985961914,-1.0602126121520996,0.04543863236904144,0.0215227622538805,0.03592861071228981
1706236717165336904,0.18859362602233887,9.753283500671388,-1.0473110675811768,0.05077584460377693,0.015027380548417568,0.03789457306265831
1706236717175523552,0.18413788080215454,9.752626419067383,-1.0553174018859863,0.05722447857260704,0.00853908620774746,0.040693093091249466
1706236717185886274,0.18091481924057007,9.74686908721924,-1.0551182031631472,0.06320463865995407,0.003656994551420212,0.04407725855708122
1706236717194939552,0.1749040335416794,9.755987167358398,-1.0631750822067263,0.06736258417367935,0.0012515878770500422,0.04752987623214722
1706236717205313052,0.18045398592948914,9.756668090820312,-1.0659524202346804,0.06891277432441711,0.0012686148984357715,0.050207722932100296
1706236717215470811,0.17263562977313998,9.765480041503906,-1.0677210092544558,0.0678749680519104,0.0031471566762775183,0.0512782521545887
1706236717225094978,0.16483017802238464,9.747963905334474,-1.07523775100708,0.06493400037288666,0.006190323270857334,0.05032031610608101
1706236717236335607,0.15183191001415255,9.759404182434084,-1.059390187263489,0.060861095786094666,0.009552281349897385,0.04753830283880234
1706236717245229570,0.16050519049167636,9.751619338989258,-1.050438642501831,0.05607161298394203,0.012304192408919334,0.0438741073012352
1706236717255254663,0.1609493046998978,9.750968933105469,-1.0523120164871218,0.0508451834321022,0.013785158284008503,0.040887247771024704
1706236717265691811,0.157635897397995,9.759050369262695,-1.042462468147278,0.045754574239254,0.013839305378496647,0.0400741770863533
1706236717275005848,0.15789413452148438,9.751317977905273,-1.0415698289871218,0.04155290871858597,0.012817840091884136,0.0421052984893322
1706236717285050978,0.16155487298965454,9.747929573059084,-1.0375949144363406,0.038739077746868134,0.011336696334183216,0.04666450247168541
1706236717295302922,0.16677419841289523,9.75098514556885,-1.0456957817077637,0.037446219474077225,0.00984871480613947,0.05271425098180771
1706236717305244996,0.16575539112091064,9.752347946166992,-1.0530368089675906,0.03760722652077675,0.008520053699612617,0.05878183990716934
1706236717324393700,0.17462828755378723,9.756719589233398,-1.0522668361663818,0.03904617577791214,0.007477379869669676,0.06329642981290817
1706236717325889218,0.17601029574871066,9.74863052368164,-1.060703992843628,0.041513703763484955,0.006916874088346958,0.0651041716337204
1706236717335105700,0.17945265769958496,9.750296592712404,-1.051785945892334,0.04474853724241257,0.006898528430610895,0.06392832845449448
1706236717345132607,0.1737526208162308,9.757396697998047,-1.0515693426132204,0.04843636602163315,0.0072245472110807896,0.060491893440485
1706236717354786255,0.16564297676086426,9.765815734863281,-1.0349143743515017,0.05204213783144951,0.007734582759439945,0.056314270943403244
1706236717364942015,0.16431614756584167,9.752299308776857,-1.0367608070373535,0.05474698171019554,0.008570298552513123,0.05323851853609085
1706236717379985922,0.16806775331497192,9.748254776000977,-1.0265040397644043,0.05576007813215256,0.009826002642512321,0.05275663733482361
1706236717384807829,0.15444675087928772,9.75534439086914,-1.0280081033706667,0.054797783493995667,0.011106029152870178,0.05542966350913048
1706236717395883441,0.14928273856639865,9.762128829956055,-1.0287123918533327,0.05210648849606514,0.01185146439820528,0.060726605355739594
1706236717405993811,0.15502408146858215,9.759759902954102,-1.0387120246887207,0.04811757802963257,0.012005023658275604,0.06724417209625244
1706236717415380311,0.14076127111911776,9.757378578186037,-1.0332691669464111,0.043336451053619385,0.012015138752758503,0.0731733962893486
1706236717425762441,0.1545831561088562,9.758753776550295,-1.0400390625,0.038371969014406204,0.012287342920899391,0.07698888331651688
1706236717435034792,0.15801154077053073,9.76751708984375,-1.0384625196456911,0.03392566740512848,0.012918103486299515,0.07802905142307281
1706236717444898052,0.15716938674449923,9.750297546386719,-1.0323871374130251,0.030797438696026802,0.013833175413310528,0.07661738991737366
1706236717455524607,0.16550551354885104,9.747282028198242,-1.0428855419158936,0.02965489774942398,0.014748940244317055,0.0737864077091217
1706236717484811052,0.1579284369945526,9.749258041381836,-1.0274944305419922,0.03842916712164879,0.012001271359622478,0.06745051592588425
1706236717495224089,0.17287737131118774,9.755998611450195,-1.0151677131652832,0.043632812798023224,0.009118171408772469,0.06800880283117294
1706236717505743515,0.15820452570915222,9.754676818847656,-1.0252916812896729,0.04810994863510132,0.00642364751547575,0.07018277049064636
1706236717514856774,0.16754543781280518,9.744182586669922,-1.023667573928833,0.050777483731508255,0.004776420537382364,0.07369479537010193
1706236717525286959,0.1567063331604004,9.750276565551758,-1.0188719034194949,0.05124277621507645,0.0044095455668866634,0.07779201120138168
1706236717536019681,0.1470792591571808,9.755680084228516,-1.0218496322631836,0.049723222851753235,0.004897218197584152,0.08155111968517303
1706236717545126163,0.15593461692333224,9.756689071655273,-1.0270408391952517,0.04667303338646889,0.005745985545217991,0.08431294560432434
1706236717555727885,0.14727246761322021,9.763792037963867,-1.0323271751403809,0.042639005929231644,0.006827525328844786,0.08571019023656845
1706236717565798978,0.1527920365333557,9.76477909088135,-1.0305051803588867,0.038326364010572433,0.008313997648656368,0.08554922044277191
1706236717574883718,0.15376947820186618,9.758367538452148,-1.020963430404663,0.03449492156505585,0.010376585647463799,0.08395662903785706
1706236717584934607,0.15507858991622925,9.764446258544922,-1.0274282693862917,0.03177319094538689,0.012881964445114136,0.0815901979804039
1706236717595379959,0.15289296209812167,9.767134666442873,-1.0145471096038818,0.03050515241920948,0.015408756211400032,0.07945980131626129
1706236717604948366,0.1591227650642395,9.761723518371584,-1.0024276971817019,0.030637050047516823,0.01757817715406418,0.0785510241985321
1706236717615759348,0.16638687252998352,9.759016990661623,-1.0029518604278564,0.03185320273041725,0.0191742442548275,0.07965550571680069
1706236717633902774,0.1784981042146683,9.761046409606935,-1.005118012428284,0.03394539654254913,0.020013727247714996,0.08311966061592102
1706236717636036885,0.16835696995258334,9.760385513305664,-1.0157701969146729,0.03697016090154648,0.019990336149930954,0.08840066194534302
1706236717648425866,0.171236589550972,9.754311561584474,-1.012010097503662,0.040892984718084335,0.019207525998353958,0.0940314307808876
1706236717657519329,0.16821041703224182,9.764427185058594,-1.0120609998703005,0.045183759182691574,0.017931636422872543,0.0983196422457695
1706236717665243977,0.17496089637279513,9.767816543579102,-1.0280195474624636,0.04899178072810173,0.016570622101426125,0.10018651187419891
1706236717674947570,0.1468047797679901,9.762723922729492,-1.0167819261550906,0.051570095121860504,0.015690097585320473,0.09940221160650253
1706236717685480107,0.15355628728866577,9.773521423339844,-1.0127627849578857,0.052298128604888916,0.015771929174661636,0.09648286551237106
1706236717707474811,0.14601622521877292,9.763046264648438,-1.006021857261658,0.04656468331813812,0.019477708265185356,0.0895184576511383
1706236717715073459,0.13978548347949984,9.772480010986328,-1.0091540813446045,0.040701039135456085,0.02273796685039997,0.08827853202819824
1706236717725903107,0.14824247360229492,9.758320808410646,-1.0077515840530398,0.03422122448682785,0.02587900124490261,0.0892447680234909
1706236717736988700,0.15975143015384677,9.769799232482912,-1.0081650018692019,0.02847842127084732,0.027828814461827278,0.0918181836605072
1706236717744981033,0.15610629320144653,9.770113945007326,-0.9977226853370668,0.024789022281765938,0.02805650793015957,0.09499762207269669
1706236717756157107,0.17126280069351196,9.765068054199219,-0.9977356791496278,0.024069473147392273,0.026872282847762108,0.09802932292222977
1706236717765345070,0.16315296292304993,9.77485466003418,-1.0072190761566162,0.026469897478818893,0.025119343772530556,0.10064388066530228
1706236717775194681,0.16280436515808105,9.776896476745607,-1.0063713788986208,0.0312734916806221,0.023694900795817375,0.10271503776311874
1706236717785470348,0.1575952619314194,9.781941413879396,-1.0075030326843262,0.037041839212179184,0.02333548478782177,0.10396082699298859
1706236717795501181,0.16253866255283358,9.774835586547852,-1.0057255029678347,0.04209088534116745,0.024439815431833267,0.10413770377635956
1706236717804877588,0.1673613637685776,9.776875495910646,-1.00627076625824,0.04524518921971321,0.0268197413533926,0.10333805531263351
1706236717815110588,0.1513848602771759,9.764348983764648,-1.005132079124451,0.04627639055252075,0.02967189997434616,0.10198847204446793
1706236717825513033,0.1530645489692688,9.770792961120607,-1.009639620780945,0.045574646443128586,0.03189067170023918,0.10060738027095795
1706236717834916922,0.15461501479148865,9.762664794921875,-1.0027245283126833,0.04360067471861839,0.03257894515991211,0.09955868870019913
1706236717845332107,0.14037004113197327,9.767378807067873,-1.0092337131500244,0.040768444538116455,0.03145826235413551,0.09898699074983597
1706236717854982181,0.1432088315486908,9.772128105163576,-1.0062804222106934,0.03743087872862816,0.0289582721889019,0.09886264055967331
1706236717874843459,0.14585939049720764,9.766735076904297,-1.0018222332000732,0.029960872605443,0.023565778508782387,0.09955400973558426
1706236717885590959,0.1544971764087677,9.77177143096924,-1.0024652481079102,0.026406092569231987,0.02214587666094303,0.10041525214910507
1706236717895736718,0.153700053691864,9.769772529602053,-1.0206743478775027,0.023896295577287674,0.021810147911310196,0.10151990503072739
1706236717907213070,0.1624680757522583,9.77278232574463,-1.0125000476837158,0.02325345389544964,0.022386448457837105,0.10226104408502579
1706236717915651200,0.15707321465015414,9.759958267211914,-1.0090023279190066,0.02483319863677025,0.02352972887456417,0.10189452022314072
1706236717925527811,0.16800954937934875,9.768402099609375,-1.020601749420166,0.028311781585216522,0.024683283641934395,0.10020836442708969
1706236717935043811,0.15608921647071838,9.760655403137209,-1.0207314491271973,0.0328538604080677,0.02524462342262268,0.09758248180150986
1706236717944960181,0.1552737206220627,9.776507377624513,-1.0218183994293213,0.03737431392073631,0.02494165673851967,0.09450015425682068
1706236717954672237,0.16793982684612277,9.758604049682617,-1.015277981758118,0.04083334282040596,0.024023594334721565,0.09136299788951874
1706236717964980496,0.15546180307865146,9.769433975219727,-1.0135003328323366,0.0426911823451519,0.022982025519013405,0.0886533334851265
1706236717975600885,-0.25529435276985174,9.790136337280273,-0.9919341802597046,0.041076648980379105,0.022272849455475807,0.08703936636447906
1706236717985294866,-2.9390835762023926,9.549544334411623,-1.5284444093704226,0.014758311212062836,0.021374424919486046,0.08475438505411148
1706236717995658903,1.0356832742691042,10.337756156921388,0.0969018265604973,-0.08723997324705124,0.019841818138957024,0.07898294180631638
1706236718007832514,-0.09809817373752594,9.0936975479126,-2.444687128067017,-0.2845158576965332,0.020432665944099426,0.07339869439601898
1706236718015349681,1.1419427394866943,9.942358970642092,0.053956460207700736,-0.4980097711086273,0.022924348711967468,0.07122083008289337
1706236718025980033,-0.15085969865322116,9.616021156311037,-1.377335786819458,-0.601405680179596,0.018854862079024315,0.06984329223632812
1706236718035587755,0.7196028828620912,9.977692604064943,-0.8188295960426332,-0.5288861393928528,0.004165071994066238,0.0730060562491417
1706236718055224385,-0.7903198003768921,9.682375907897951,-0.8256344199180604,-0.04816097021102905,-0.019502922892570496,0.0989469587802887
1706236718066661366,0.7540343999862671,9.777734756469727,-1.3763979673385622,0.15245142579078674,-0.01613316684961319,0.1027870625257492
1706236718074684236,-0.08664651215076447,9.405068397521974,-0.8012814521789551,0.22622691094875336,-0.009804731234908104,0.09212665259838104
1706236718085430385,0.0234450064599514,10.345723152160646,-1.1915507316589355,0.18627548217773438,-0.008368737995624542,0.07077749818563461
1706236718094724292,-0.09371446073055267,9.419844627380373,-0.899750828742981,0.08670265227556229,-0.009923231787979603,0.04870143160223961
1706236718109061959,-0.08610921353101732,10.035953521728516,-0.9749160408973695,-0.0243813619017601,-0.005284433253109455,0.036243632435798645
1706236718115501811,-0.03529090061783791,9.634642601013185,-1.3039594888687136,-0.11807607859373093,0.009139998815953732,0.037941742688417435
1706236718126013311,-0.13898271322250366,9.975139617919922,-0.7234504222869873,-0.18159891664981842,0.029079575091600418,0.04953350871801376
1706236718135923348,0.004439186304807663,9.635302543640138,-1.5234315395355225,-0.21406373381614685,0.04886971786618233,0.06184440106153488
1706236718145391514,0.05600809305906296,9.688331604003906,-0.8399305939674379,-0.22096776962280273,0.0627484917640686,0.06626833230257034
1706236718155076625,-0.13764169812202454,9.815942764282227,-1.2165253162384033,-0.20918609201908112,0.06460365653038025,0.05800241231918335
1706236718165070181,0.15449090301990512,9.763242721557617,-1.139714241027832,-0.1861974149942398,0.05284789949655533,0.03924207389354706
1706236718175054403,-0.006506449542939663,9.766809463500977,-1.098912835121155,-0.15924403071403503,0.033706746995449066,0.016383947804570198
1706236718184720718,0.10510395467281342,9.741719245910646,-1.1506614685058594,-0.13245417177677155,0.016050921753048897,-0.0051229605451226234
1706236718195776292,0.06976670026779175,9.567206382751467,-1.0759658813476562,-0.1072811409831047,0.004137435927987099,-0.021219225600361824
1706236718207083107,-0.0604936145246029,9.841028213500977,-1.1947532892227175,-0.08528266102075577,-0.004179381299763918,-0.02965680882334709
1706236718215685403,0.09990543872117998,9.632845878601076,-1.0211342573165896,-0.06958892196416855,-0.012591574341058731,-0.03089696727693081
1706236718225592718,-0.10422054678201677,9.85579013824463,-1.1439863443374636,-0.06358085572719574,-0.021040193736553192,-0.026746228337287903
1706236718235704847,-0.03719526901841164,9.700201034545898,-1.1752027273178103,-0.0688326507806778,-0.026165008544921875,-0.019351666793227196
1706236718245007736,-0.11710216104984283,9.826369285583498,-1.082364559173584,-0.08528374135494232,-0.02470874972641468,-0.012095117010176182
1706236718254725810,-0.13873231410980225,9.733705520629883,-1.235114574432373,-0.11158789694309235,-0.01595168001949787,-0.008783635683357716
1706236718274915107,-0.24336493015289307,9.701521873474123,-1.17241108417511,-0.18010976910591125,0.010671776719391346,-0.02312139794230461
1706236718285688162,-0.15925335884094238,9.80755615234375,-1.1651029586791992,-0.2140805870294571,0.018194561824202538,-0.04077780991792679
1706236718295651403,-0.19025081396102905,9.757571220397951,-1.1739695072174072,-0.24471773207187653,0.01867564208805561,-0.06006748974323273
1706236718307145922,-0.21085962653160095,9.873926162719727,-1.0888284444808962,-0.27096104621887207,0.015722163021564484,-0.07479513436555862
1706236718314700422,-0.13588622212409973,9.644899368286133,-1.1771495342254639,-0.2915181517601013,0.014660067856311798,-0.08033852279186249
1706236718325688847,-0.17680680751800537,9.763551712036133,-1.065434217453003,-0.30498772859573364,0.01714329607784748,-0.07526649534702301
1706236718335914329,-0.1280628740787506,9.658436775207521,-1.1738935708999636,-0.3102039098739624,0.01943727396428585,-0.0616629458963871
1706236718345553884,-0.16032929718494418,9.71035385131836,-1.1024924516677859,-0.30721086263656616,0.016358256340026855,-0.04406093806028366
1706236718355296847,-0.1797393262386322,9.706057548522951,-1.1492742300033572,-0.29813581705093384,0.00569548225030303,-0.027700792998075485
1706236718365433310,-0.15509103238582614,9.710778236389162,-1.1451390981674197,-0.28698205947875977,-0.010504577308893204,-0.016639314591884613
1706236718375649051,-0.19469738006591797,9.726751327514648,-1.160586476325989,-0.2780833840370178,-0.027355920523405075,-0.01276525016874075
1706236718385318236,-0.1688800007104874,9.733148574829102,-1.1772804260253906,-0.2742537260055542,-0.03982406109571457,-0.01604275219142437
1706236718405409144,-0.2508260905742646,9.732826232910156,-1.1650757789611816,-0.28384843468666077,-0.042485542595386505,-0.038317158818244934
1706236718415131755,-0.25081238150596624,9.725359916687013,-1.1269220113754275,-0.2966126501560211,-0.035083528608083725,-0.0526018962264061
