Timestamp,IMU_Raw_x,IMU_Raw_y,IMU_Raw_z,IMU_Linear_Acc_X,IMU_Linear_Acc_Y,IMU_Linear_Acc_Z
2099409818,-0.32581552863121,-9.71596813201904,-0.464090138673782,-0.0007756751147098839,-0.0007031418499536812,-5.3974203183315694e-05
2110099554,-0.33186200261116,-9.71158027648926,-0.469407916069031,-0.001046322868205607,-4.7274716052925214e-05,0.0015262910164892673
2118725538,-0.313864469528198,-9.70244216918945,-0.482853889465332,-0.0016108456766232848,0.00024356483481824398,0.0031532268039882183
2129652738,-0.331518322229385,-9.72439002990723,-0.473621159791946,-0.0019509007688611746,0.00032141624251380563,0.004221792798489332
2139114379,-0.322068214416504,-9.71392726898194,-0.474729388952255,-0.0016482319915667176,0.00029055390041321516,0.004118839278817177
2149269819,-0.325772374868393,-9.70009422302246,-0.462100178003311,-0.0007172225741669536,5.19653367518913e-05,0.002843670081347227
2163099050,-0.328170776367188,-9.71594905853272,-0.476392358541489,0.000472225685371086,-0.00030049114138819277,0.001138479681685567
2170590877,-0.334359854459763,-9.72304153442383,-0.475826025009155,0.0014330593403428793,-0.00047442864160984755,-0.00014442135579884052
2179978132,-0.338179022073746,-9.70752716064453,-0.466803789138794,0.0016494151204824448,-0.0005203808541409671,-0.0006849493947811425
2239343881,-0.329851925373077,-9.70785140991211,-0.481284350156784,0.000698607589583844,-0.0007574864430353045,-0.0006269978475756943
2522900342,-0.325514227151871,-9.71798706054688,-0.472445785999298,-0.001469944603741169,-0.001275249058380723,-0.00022022647317498922
2530849456,-0.337958991527557,-9.70888233184815,-0.472677230834961,-0.004284353461116552,-0.0018766085850074887,0.0002611819945741445
2538771152,-0.330380976200104,-9.71764183044434,-0.469217121601105,-0.006749830208718777,-0.0023286016657948494,0.0005407294374890625
2549550294,-0.336947321891785,-9.71190357208252,-0.469608426094055,-0.008100274950265884,-0.002581343287602067,0.0005078757531009614
2559360742,-0.32612669467926,-9.70987796783447,-0.477799415588379,-0.008152627386152744,-0.0027382848784327507,0.00024136037973221391
2570082187,-0.332672208547592,-9.70684337615967,-0.476237773895264,-0.007073550950735807,-0.0027783922851085663,-0.0002514527877792716
2580030679,-0.318728178739548,-9.70886611938477,-0.477250516414642,-0.005102436523884535,-0.0024671629071235657,-0.0010634385980665684
2590325593,-0.327899307012558,-9.71528244018555,-0.473158568143845,-0.00256427563726902,-0.0016460140468552709,-0.0020687298383563757
2600124597,-0.32326340675354,-9.70381546020508,-0.472469806671143,5.8445020840736106e-05,-0.0005296100862324238,-0.0029086358845233917
2609019994,-0.326945394277573,-9.71865177154541,-0.473307996988297,0.002227978315204382,0.0004030672134831548,-0.003245361614972353
2620734214,-0.330584079027176,-9.70886135101319,-0.475709974765778,-0.002310784300789237,-0.0037489517126232386,8.394743781536818e-05
2628793001,-0.324408620595932,-9.72574138641358,-0.471538990736008,-0.002148277824744582,-0.0010479232296347618,0.0013568100985139608
2638845205,-0.328320413827896,-9.72000694274902,-0.471047878265381,-0.001878562499769032,0.0013833402190357447,0.003277296433225274
2648612260,-0.334261298179626,-9.71696567535401,-0.47564235329628,-0.001339993323199451,0.0029137958772480488,0.005114319268614054
2660569190,-0.329159677028656,-9.71560287475586,-0.479540497064591,-0.0005806738045066595,0.0033560169395059347,0.0061902692541480064
2668950319,-0.317276775836945,-9.70348358154297,-0.465527087450028,-9.866924665402621e-05,0.0028242389671504498,0.006228859070688486
2678714275,-0.334938019514084,-9.70853233337402,-0.473535001277924,-0.00036466741585172713,0.0014863780234009027,0.00520784966647625
2688936471,-0.32893443107605,-9.71091938018799,-0.459396749734879,-0.0013232455821707845,-0.0004521442169789225,0.0031840179581195116
2698493003,-0.331360578536987,-9.71226215362549,-0.460841357707977,-0.0024757562205195427,-0.0024645172525197268,0.0003936326829716563
2708882331,-0.320019960403442,-9.70784759521484,-0.476948350667954,-0.0032165658194571733,-0.0036677021998912096,-0.002585282316431403
2721406459,-0.322056293487549,-9.71428298950195,-0.464487344026566,-0.003162274369969964,-0.0033886677119880915,-0.005004993174225092
2730239868,-0.332411646842957,-9.70853710174561,-0.472872048616409,-0.0023944308049976826,-0.0018195216543972492,-0.006341918371617794
2739404201,-0.337065488100052,-9.71563625335694,-0.468095481395721,-0.0014127785107120872,8.394551696255803e-05,-0.006391865201294422
2750194787,-0.326875597238541,-9.72033309936523,-0.480372935533524,-0.0008529581245966256,0.0014238094445317984,-0.005141697358340025
2759171247,-0.331187397241592,-9.7196626663208,-0.480362683534622,-0.0010593549814075232,0.001964170951396227,-0.002881301799789071
2768910408,-0.328044235706329,-9.70853137969971,-0.48084482550621,-0.0018006731988862157,0.0020319102331995964,-0.0002885343274101615
2780092000,-0.32239955663681,-9.70447444915772,-0.47539234161377,-0.0025821609888225794,0.0020017242059111595,0.001885131816379726
2789859056,-0.327180564403534,-9.70447063446045,-0.475052356719971,-0.0030890298075973988,0.0018661415670067072,0.003143268171697855
2799862623,-0.32865098118782,-9.71863842010498,-0.481278449296951,-0.0018208198016509414,-0.00016313143714796752,-0.0014671520330011845
2809533834,-0.327916175127029,-9.71361064910889,-0.465826123952866,-0.0025623012334108353,-0.0005733155994676054,-0.000415637536207214
2828737020,-0.338979154825211,-9.71022129058838,-0.468563050031662,-0.00315279234200716,-0.002061178209260106,0.00030899362172931433
2833643913,-0.326925992965698,-9.70954513549805,-0.470071047544479,-0.0032480619847774506,-0.004018824081867933,0.0007685385062359273
2842736721,-0.322876125574112,-9.70380973815918,-0.474360853433609,-0.0027288806159049273,-0.005737224593758583,0.0012116041034460068
2852114915,-0.336427927017212,-9.7132682800293,-0.466800957918167,-0.0016491141868755221,-0.00666517810896039,0.0015511371893808246
2861386060,-0.324808299541473,-9.71526527404785,-0.476476490497589,-0.0002588655333966017,-0.006498880218714476,0.0014302378986030817
2868786334,-0.328167051076889,-9.72101974487305,-0.473268806934357,0.0010115561308339238,-0.005399796646088362,0.0007195229991339147
2879397153,-0.327981531620026,-9.71697235107422,-0.473590016365051,0.0017722015036270022,-0.0040324367582798,-0.00034124244120903313
2889704942,-0.320345103740692,-9.71798610687256,-0.468495965003967,0.001795255928300321,-0.0031037949956953526,-0.0013081904035061598
2899534225,-0.325190246105194,-9.72303199768066,-0.475715011358261,0.0010141445090994239,-0.0029234690591692924,-0.0016750142676755786
2909965991,-0.332169085741043,-9.7058219909668,-0.484654814004898,-0.0004069912829436362,-0.0033032726496458054,-0.0012018997222185135
2918779611,-0.333140850067139,-9.71967124938965,-0.469581097364426,-0.0021295209880918264,-0.0036382011603564024,-0.00024079153081402183
2932163953,-0.32741516828537,-9.72305774688721,-0.465093463659287,-0.0037850148510187864,-0.003313393099233508,0.0005288089741952717
2938606023,-0.333199471235275,-9.70921230316162,-0.475098103284836,-0.0049948133528232574,-0.0022388205397874117,0.0006595816812478006
2949877738,-0.333932757377625,-9.71630859375,-0.471034228801727,-0.005478094331920147,-0.0008761240169405937,0.00013475333980750293
2967033147,-0.332543134689331,-9.71932983398438,-0.467378556728363,-0.005248319823294878,0.00018849459593184292,-0.0007472648285329342
2973899602,-0.331961125135422,-9.71763134002686,-0.48394900560379,-0.004532429855316877,0.0006335267098620534,-0.0015224413946270943
2984235525,-0.321393191814423,-9.70953369140625,-0.478035867214203,-0.0035397957544773817,0.000533496611751616,-0.0017552548088133335
2989024877,-0.327857077121735,-9.72304153442383,-0.472002416849136,-0.004472299944609404,-0.005461415741592646,-0.001457224483601749
3000187873,-0.334442257881165,-9.70582962036133,-0.477695286273956,-0.0049658892676234245,-0.004447560757398605,-5.421202149591409e-05
3008834600,-0.320897400379181,-9.70818996429444,-0.468680202960968,-0.004371043294668198,-0.0028312772046774626,0.0012771391775459051
3019834995,-0.339698970317841,-9.70887756347656,-0.471417874097824,-0.0031644811388105154,-0.0010166667634621263,0.002223873743787408
3035410642,-0.328244268894196,-9.72101402282715,-0.473639309406281,-0.0017764214426279068,0.0007462744251824915,0.0025251791812479496
3041049718,-0.329216301441193,-9.71933460235596,-0.471517205238342,-0.0005301042692735791,0.002357826102524996,0.002324574626982212
3048823833,-0.329584389925003,-9.72068119049072,-0.47757551074028,0.00032355592702515423,0.003557921852916479,0.0019802895840257406
3058995246,-0.325308978557587,-9.71561622619629,-0.471716552972794,0.0006871868972666562,0.004086416680365801,0.0014960417756810784
3068988323,-0.328663378953934,-9.71799945831299,-0.461120337247849,0.00066526880254969,0.004061713814735413,0.0005854963092133403
3078723192,-0.324179828166962,-9.71798038482666,-0.4752177298069,0.0004897736944258213,0.003870568238198757,-0.0006416591932065785
3091783046,-0.320733517408371,-9.71256637573242,-0.477139055728912,0.0002571305085439235,0.0037823058664798737,-0.001612760010175407
3099042415,-0.328867703676224,-9.70785808563233,-0.477501899003983,-0.00020340426999609917,0.0038383258506655693,-0.0019684676080942154
3109161615,-0.326833695173264,-9.72067642211914,-0.470355719327927,-0.0010614192578941584,0.003949356731027365,-0.001831615692935884
3119714260,-0.323220998048782,-9.71864795684815,-0.479073077440262,-0.002217910485342145,0.003955765161663294,-0.001526243519037962
3131936311,-0.336150079965591,-9.71460914611816,-0.469519466161728,-0.0033495884854346514,0.0037067579105496407,-0.0013359275180846453
3144352674,-0.327562272548676,-9.7206916809082,-0.464355021715164,-0.004048331640660763,0.0031108201947063208,-0.0013411855325102806
3150351524,-0.332948476076126,-9.71258449554444,-0.47384187579155,-0.003958524204790592,0.0021501046139746904,-0.0013791486853733659
3160493373,-0.331639498472214,-9.70480918884277,-0.47764378786087,-0.002992248861119151,0.0010279505513608456,-0.0012587413657456636
3169480562,-0.335183262825012,-9.71055507659912,-0.474639087915421,-0.0014298612950369716,0.0002463513519614935,-0.0009693634347058833
3178518533,-0.323014378547668,-9.71426486968994,-0.474030137062073,0.00027903076261281967,0.00022769968200009316,-0.0006335785728879273
3188777208,-0.333806395530701,-9.7115650177002,-0.47737067937851,0.0017681664321571589,0.0007767497445456684,-0.0003591134154703468
3201782941,-0.329443752765656,-9.71595764160156,-0.471494019031525,0.0027471340727061033,0.0011223865440115333,-0.00012794022040907294
3208592414,-0.327547699213028,-9.71122264862061,-0.473641186952591,0.0029401981737464666,0.0005727903917431831,0.00025919711333699524
3218738317,-0.326399594545364,-9.71022987365723,-0.465459614992142,0.0021905098110437393,-0.0008655385463498533,0.0010083990637212992
3232110023,-0.32601323723793,-9.71257972717285,-0.476238042116165,0.0006019867723807693,-0.002450617030262947,0.0020635665860027075
3243338823,-0.335113435983658,-9.72035503387451,-0.469100832939148,-0.0013322841841727495,-0.003374305786564946,0.0031316557433456182
3249139070,-0.338730365037918,-9.70346927642822,-0.479294836521149,-0.0028980534989386797,-0.0034389817155897617,0.0038852549623697996
3258744716,-0.340257078409195,-9.72203636169434,-0.471867799758911,-0.0036843866109848022,-0.0029561573173850775,0.0040710074827075005
3269587039,-0.331398099660873,-9.71832275390625,-0.468632936477661,-0.0038047500420361757,-0.0023233555257320404,0.003573973895981908
3279763936,-0.326603144407272,-9.71730518341065,-0.477560758590698,-0.0036267274990677834,-0.0018672456499189138,0.002471947344020009
3289534807,-0.34050390124321,-9.70382213592529,-0.46842959523201,-0.0034727330785244703,-0.001752271200530231,0.001068039215169847
3300934791,-0.328805148601532,-9.72068881988526,-0.471101760864258,-0.0034487091470509768,-0.0019680876284837723,-0.00018244095554109663
3311678409,-0.330907881259918,-9.71595668792725,-0.482201397418976,-0.0033888746984302998,-0.0024349824525415897,-0.0008820770308375359
3321195125,-0.332985401153564,-9.70583438873291,-0.469157248735428,-0.003096482716500759,-0.002988262800499797,-0.0007927612168714404
3329883098,-0.334968268871307,-9.71427440643311,-0.475062012672424,-0.0025996421463787556,-0.0034048394300043583,8.592546510044485e-05
3340911149,-0.322559535503387,-9.72035503387451,-0.468421578407288,-0.0020282811019569635,-0.00353918201290071,0.0013113964814692736
3350143194,-0.322525411844254,-9.70986938476562,-0.479778826236725,-0.0014635123079642653,-0.0032802317291498184,0.0021504356991499662
3359348773,-0.324359923601151,-9.71595287322998,-0.48053702712059,-0.0009447379852645099,-0.002522211754694581,0.002180038020014763
3369371175,-0.326035529375076,-9.72169303894043,-0.478253781795502,-0.000449430663138628,-0.001307875383645296,0.0015600855695083737
3379325628,-0.333910822868347,-9.71696567535401,-0.473602592945099,8.83975881151855e-05,0.00013163749827072024,0.0006801144918426871
3389384269,-0.345069855451584,-9.71731853485108,-0.468412965536118,0.0007102024974301457,0.0014251538086682558,-0.00018054645624943078
3478615760,-0.321953743696213,-9.71156692504883,-0.471307158470154,0.0013904377119615674,0.002136470517143607,-0.0007880543125793338
3757371187,-0.318616390228271,-9.71899223327637,-0.470946729183197,0.0019720466807484627,0.0019449387909844518,-0.000900814775377512
3768236398,-0.336636364459991,-9.70954990386963,-0.465198040008545,0.0021970851812511683,0.0008600334986113012,-0.00048334934399463236
3774305820,-0.325110822916031,-9.71731948852539,-0.467469930648804,0.001972619444131851,-0.0006696780328638852,0.00023172942746896297
3779934167,-0.325594335794449,-9.71594619750977,-0.479650676250458,0.001471818657591939,-0.001969315577298403,0.0009855591924861073
3790727138,-0.330823093652725,-9.70448017120362,-0.474643141031265,0.0008424728293903172,-0.0025833381805568933,0.00157070136629045
3800651550,-0.321938902139664,-9.71427917480469,-0.471470683813095,3.5695175029104576e-06,-0.0024376309011131525,0.0017232224345207214
3838279008,-0.328759580850601,-9.70652198791504,-0.470003634691238,-0.0012186854146420956,-0.0017162665026262403,0.0012453860836103559
3847917556,-0.320234149694443,-9.70919704437256,-0.47713229060173,-0.0028846454806625843,-0.0008408040157519281,0.00020731973927468061
3869863033,-0.330362141132355,-9.71866512298584,-0.470220297574997,-0.004796416964381933,-0.0003589482803363353,-0.0010577880311757326
3890704631,-0.319331675767899,-9.71088886260987,-0.473665356636047,-0.006395063828676939,-0.0005681969341821969,-0.002112425398081541
3899310588,-0.330430179834366,-9.70955562591553,-0.464418292045593,-0.006964050233364105,-0.0012785143917426467,-0.0026836921460926533
3962323665,-0.334531426429749,-9.71662998199463,-0.47397118806839,-0.0061201127246022224,-0.001962177222594619,-0.002832321682944894
3969326019,-0.322168052196503,-9.71527862548828,-0.471221327781677,-0.004111878108233213,-0.002115909941494465,-0.0028017056174576283
4158747434,-0.334852278232574,-9.7112398147583,-0.463452368974686,-0.0017714208224788308,-0.001556220930069685,-0.0027224323712289333
4291338205,-0.327928721904755,-9.71898078918457,-0.476380109786987,-0.00014727497182320803,-0.0004397559678182006,-0.0024994900450110435
4298441410,-0.324066251516342,-9.71090030670166,-0.46748811006546,0.00014456133067142218,0.0008926882292144,-0.0020422828383743763
4311314821,-0.32211771607399,-9.72371864318848,-0.473580271005631,-0.0006535061984322965,0.0020271099638193846,-0.0015103168552741408
4320033073,-0.324756264686584,-9.71932888031006,-0.473609626293182,-0.00175333465449512,0.002650963608175516,-0.0011822400847449899
4329406023,-0.31857305765152,-9.72135543823242,-0.464037477970123,-0.002518666675314307,0.002781642135232687,-0.0012484294129535556
4343406200,-0.334614515304565,-9.70279312133789,-0.473523378372192,-0.0028415147680789232,0.0026678976137191057,-0.0018328339792788029
4349970817,-0.330518364906311,-9.70009231567383,-0.469283580780029,-0.003050391562283039,0.002444020938128233,-0.002992122434079647
4364829063,-0.325488567352295,-9.71392440795898,-0.482611864805222,-0.003596360795199871,0.0020512070041149855,-0.004517737776041031
4372773170,-0.322022289037705,-9.71392822265625,-0.477969974279404,-0.004674801602959633,0.001410679193213582,-0.005805185064673424
4388440608,-0.32118147611618,-9.71190166473389,-0.474258184432983,-0.005860095843672752,0.0005654126289300621,-0.006082444451749325
4478908300,-0.321689933538437,-9.71728992462158,-0.486128449440002,-0.006218236871063709,-0.0002938736870419234,-0.004853524267673492
4490694046,-0.329638153314591,-9.71427822113037,-0.468916952610016,-0.005114074796438217,-0.0010232699569314718,-0.0022685499861836433
4525428771,-0.326778948307037,-9.71292304992676,-0.465864598751068,-0.002755781402811408,-0.0016499774064868689,0.0008165376493707299
4951599359,-0.333851605653763,-9.71089553833008,-0.477865427732468,3.7125879316590726e-05,-0.002142583020031452,0.00331405783072114
4960523605,-0.336826592683792,-9.71461486816406,-0.468484401702881,0.002236723667010665,-0.0023228854406625032,0.004619957413524389
4975064516,-0.323871403932571,-9.70955467224121,-0.461964249610901,0.00304435845464468,-0.002134624170139432,0.004844433628022671
4981475353,-0.327698141336441,-9.72540664672852,-0.472642332315445,0.002343004336580634,-0.0017613759264349937,0.004367401357740164
4994165420,-0.330390453338623,-9.71865844726562,-0.467639595270157,0.0007019006880000234,-0.001480353414081037,0.0033315233886241913
4998336315,-0.336500257253647,-9.71528148651123,-0.475705802440643,-0.0011209241347387433,-0.0014424212276935577,0.0016163289546966553
5008465051,-0.332494020462036,-9.71055221557617,-0.482204616069794,-0.0026485684793442488,-0.0014637125423178077,-0.0007816462893970311
5019598484,-0.329845875501633,-9.72304916381836,-0.469524472951889,-0.003652414074167609,-0.0011981930583715439,-0.003374579129740596
5029571533,-0.332080096006393,-9.71595668792725,-0.477927684783936,-0.0039307433180511,-0.0005944952717982233,-0.005250679329037666
5049821615,-0.336888432502747,-9.71866512298584,-0.473023116588593,-0.003426033305004239,4.869484473601915e-05,-0.005705587565898895
5060177803,-0.329976707696915,-9.70988178253174,-0.470333963632584,-0.0024397890083491802,0.00039317316259257495,-0.00479290122166276
5076572656,-0.335155367851257,-9.70278835296631,-0.477686583995819,-0.0015215387102216482,0.00023140352277550846,-0.0030435454100370407
5089114427,-0.324496269226074,-9.71089267730713,-0.475666999816895,-0.0011185447219759226,-0.0005257969023659825,-0.0008653074619360268
5098167657,-0.334154427051544,-9.72474479675293,-0.463173866271973,-0.001328204176388681,-0.0018071634694933891,0.0014216670533642173
5109252452,-0.339994072914124,-9.70786094665527,-0.474054515361786,-0.001894966117106378,-0.0032967382576316595,0.0032869589049369097
5131178855,-0.325664937496185,-9.71090412139893,-0.467547208070755,-0.0023505184799432755,-0.004555955529212952,0.004225239157676697
5141670465,-0.329499065876007,-9.71594429016113,-0.476035535335541,-0.0022405022755265236,-0.005352865904569626,0.004138693679124117
5150130033,-0.322469800710678,-9.71729278564453,-0.485638707876205,-0.001365658943541348,-0.005824374035000801,0.0033197160810232162
5198549985,-0.331524014472961,-9.71392917633057,-0.472974628210068,0.00010025195661000907,-0.006177382543683052,0.0022828979417681694
5228648900,-0.313165873289108,-9.70818519592285,-0.478350281715393,0.0015984268393367529,-0.006191853899508715,0.0015386767918244004
5240670680,-0.324287325143814,-9.70785903930664,-0.472008585929871,0.0024038872215896845,-0.005252482369542122,0.0012544034980237484
5249274015,-0.335181921720505,-9.71663475036621,-0.469671249389648,0.002180417999625206,-0.0031174328178167343,0.00111394131090492
5259235620,-0.31947273015976,-9.70986747741699,-0.48163178563118,0.0013106651604175568,-0.0004302289744373411,0.0006060293526388705
5280175447,-0.328891813755035,-9.72809982299805,-0.475972324609757,0.0005444795242510736,0.0017376969335600734,-0.0004667435714509338
5289771556,-0.326808929443359,-9.70987796783447,-0.472592145204544,0.00038830353878438473,0.0026132005732506514,-0.0018117456929758191
5490481138,-0.330497264862061,-9.71696376800537,-0.475987106561661,0.0008161099394783378,0.0020855253096669912,-0.002988276304677129
5506929636,-0.33644637465477,-9.71225357055664,-0.470035016536713,0.0013243620051071048,0.0007566266576759517,-0.003794188844040036
5519388914,-0.33187535405159,-9.70953750610352,-0.477623581886292,0.0012042525922879577,-0.0003690852608997375,-0.004272998310625553
5540331840,-0.327695488929749,-9.7051591873169,-0.474353969097137,8.801329386187717e-05,-0.00048181155580095947,-0.0044376361183822155
5559669733,-0.325190871953964,-9.70685958862305,-0.467311918735504,-0.0016511561116203666,0.0005400570225901902,-0.004122537560760975
5570040702,-0.324685305356979,-9.70684242248535,-0.474612772464752,-0.0032085382845252752,0.0020396842155605555,-0.003172933589667082
5588554859,-0.326692909002304,-9.71696853637695,-0.474172741174698,-0.004051176831126213,0.002991868183016777,-0.0017873906763270497
5599998712,-0.319939166307449,-9.71797370910645,-0.472744822502136,-0.004236206877976656,0.0026867601554840803,-0.0006350567564368248
5608719587,-0.337389171123505,-9.71865558624268,-0.475482910871506,-0.00406383303925395,0.0011297737946733832,-0.00045783890527673066
5629645824,-0.327057152986527,-9.71764945983887,-0.472464591264725,-0.0036674742586910725,-0.0010392408585175872,-0.0013788988580927253
6018971443,-0.327418148517609,-9.72101879119873,-0.473695397377014,-0.0031214673072099686,-0.0028910012915730476,-0.002705662976950407
6029091596,-0.335335373878479,-9.72272109985352,-0.462666630744934,-0.0026447989512234926,-0.0037422887980937958,-0.003511345013976097
6039260387,-0.320116996765137,-9.71495628356934,-0.471164464950562,-0.002422048943117261,-0.0035272694658488035,-0.0032356667798012495
6051126003,-0.332546710968018,-9.70482349395752,-0.474472284317017,-0.0023195361718535423,-0.002583168214187026,-0.0018297851784154773
6059919834,-0.332387953996658,-9.70145130157471,-0.468438625335693,-0.0019051659619435668,-0.001267568557523191,0.0002674403367564082
6079213857,-0.330620527267456,-9.71292877197266,-0.466910570859909,-0.0008391456212848425,0.00010702013241825625,0.002216402906924486
6129346132,-0.330861806869507,-9.72000503540039,-0.473931491374969,0.0006888472125865519,0.0011584670282900333,0.003114115446805954
6138246774,-0.337203562259674,-9.72440624237061,-0.471727192401886,0.002004617592319846,0.0014471042668446898,0.0025350209325551987
6150900125,-0.323848098516464,-9.72302722930908,-0.480120062828064,0.0025275119114667177,0.0008260348113253713,0.0008786485996097326
6509676456,-0.33633229136467,-9.71292686462402,-0.470432817935944,0.0022471437696367502,-0.0003061998577322811,-0.0009214258170686662
6519873619,-0.32104429602623,-9.70986557006836,-0.48386949300766,0.001612161286175251,-0.0014247540384531021,-0.0021525968331843615
6528848409,-0.326443493366241,-9.71325492858887,-0.472953498363495,0.0010225257137790322,-0.002315332880243659,-0.0026777407620102167
6538480997,-0.325678765773773,-9.7088680267334,-0.471600413322449,0.00048446134314872324,-0.0028286816086620092,-0.002691155532374978
6548566818,-0.332272827625275,-9.7146053314209,-0.477234184741974,-0.00025239240494556725,-0.0026150024496018887,-0.0024423080030828714
6558966398,-0.330723643302917,-9.70448684692383,-0.475831270217896,-0.0013838951708748937,-0.0014456980861723423,-0.002084876876324415
6568748235,-0.327365517616272,-9.71967697143555,-0.471181243658066,-0.002903522690758109,0.0003563851350918412,-0.0016745618777349591
6580300331,-0.329966992139816,-9.71561813354492,-0.473205000162125,-0.0045431992039084435,0.0019639746751636267,-0.0012812205823138356
6614211082,-0.331375986337662,-9.71325302124023,-0.478920578956604,-0.005817749537527561,0.0025296215899288654,-0.0009506287169642746
6674353599,-0.323451966047287,-9.71360778808594,-0.464194655418396,-0.006288676522672176,0.0017371040303260088,-0.0006863512098789215
6689266204,-0.327642410993576,-9.7044792175293,-0.478312373161316,-0.005839047487825155,1.3979764844407327e-05,-0.000553225283510983
6698627471,-0.329857498407364,-9.71459865570069,-0.478316992521286,-0.004679090343415737,-0.0018746957648545504,-0.0005305393715389073
6715397119,-0.328668028116226,-9.71020793914795,-0.477949440479279,-0.0032035463955253363,-0.003413744503632188,-0.00044424846419133246
6718511819,-0.323032855987549,-9.71933364868164,-0.47023132443428,-0.001871427521109581,-0.00441265432164073,-0.0003628608537837863
6729494333,-0.322402536869049,-9.71022415161133,-0.471105188131332,-0.0010636229999363422,-0.004851160105317831,-0.0006684832624159753
6739867448,-0.332832843065262,-9.7115650177002,-0.47889044880867,-0.0009236937621608377,-0.004914489574730396,-0.0015379352262243629
6749143123,-0.330045282840729,-9.70987987518311,-0.475345492362976,-0.0013059197226539254,-0.004924004431813955,-0.002658321987837553
6759748697,-0.324154406785965,-9.71696186065674,-0.479973584413528,-0.0019119372591376305,-0.005020203068852425,-0.0034851646050810814
6768455028,-0.330506533384323,-9.71999931335449,-0.472389250993729,-0.002398382406681776,-0.004851046018302441,-0.003717829007655382
6779117822,-0.323265641927719,-9.71291065216065,-0.477139085531235,-0.002423040335997939,-0.003782637882977724,-0.0035532244946807623
6789641618,-0.328318953514099,-9.71730613708496,-0.471911907196045,-0.001870352658443153,-0.0016524664824828506,-0.003376050852239132
6871172666,-0.32999250292778,-9.70516014099121,-0.474893629550934,-0.0009494333062320948,0.0009754262864589691,-0.0031760844867676497
6879794597,-0.327943861484528,-9.72102451324463,-0.470279812812805,3.258167635067366e-05,0.003309079213067889,-0.0025186450220644474
6948992252,-0.329660713672638,-9.7172794342041,-0.485210627317429,0.0008603722089901567,0.004714761395007372,-0.00116340524982661
6969437122,-0.324067324399948,-9.70953369140625,-0.476116299629211,0.0014489166205748916,0.004813130479305983,0.0005817827768623829
6980867624,-0.329187273979187,-9.71224117279053,-0.468305647373199,0.001753153745085001,0.003587944433093071,0.0021813467610627413
6989771842,-0.326915234327316,-9.70549392700195,-0.472876191139221,0.0016427217051386833,0.0014465340645983815,0.0033401334658265114
6999242544,-0.328934758901596,-9.71358013153076,-0.481112569570541,0.000931279209908098,-0.0009899674914777279,0.004121652338653803
7009286880,-0.327159702777863,-9.71292400360108,-0.469497114419937,-0.00040551830898039043,-0.0032034004107117653,0.0046696532517671585
7021254301,-0.338719606399536,-9.71461200714112,-0.469092756509781,-0.001999199390411377,-0.004731501452624798,0.004914081189781427
7029487848,-0.324109882116318,-9.72033405303955,-0.478429764509201,-0.0032383808866143227,-0.005004679784178734,0.0046106488443911076
7039137840,-0.330551117658615,-9.71830654144287,-0.47976291179657,-0.003704668954014778,-0.0037100487388670444,0.003593642497435212
7049900293,-0.333816736936569,-9.71291923522949,-0.473556399345398,-0.0033645997755229473,-0.0013467447133734822,0.0019909641705453396
7062282800,-0.324708372354508,-9.70954704284668,-0.472942054271698,-0.002480987226590514,0.0009203825029544532,0.00015364190039690584
7069072008,-0.321288675069809,-9.71596240997315,-0.463263034820557,-0.001488037989474833,0.0020417990162968636,-0.001664707437157631
7079397916,-0.337873905897141,-9.71594905853272,-0.477438420057297,-0.000893631367944181,0.0016766604967415333,-0.003324053715914488
7089119911,-0.328587919473648,-9.71257781982422,-0.476557701826096,-0.0010866827797144651,0.0002586670161690563,-0.004453663714230061
7098953008,-0.316931456327438,-9.7078447341919,-0.480417639017105,-0.002001358661800623,-0.001419167616404593,-0.004451447166502476
7111007213,-0.324136108160019,-9.71594905853272,-0.475024670362473,-0.0030768425203859806,-0.0028473087586462498,-0.003034801920875907
7123994112,-0.327062457799912,-9.70211791992188,-0.470991939306259,-0.003780200844630599,-0.004008539952337742,-0.0006439880817197263
7128732204,-0.333581358194351,-9.70785903930664,-0.472856491804123,-0.004074517171829939,-0.004957415629178286,0.0017401761142536998
7138460397,-0.337234944105148,-9.70784759521484,-0.481740206480026,-0.004264409653842449,-0.005528061185032129,0.0030981432646512985
7149886369,-0.328714072704315,-9.71393394470215,-0.472569137811661,-0.004548205062747002,-0.005613959860056639,0.002939511090517044
7169257402,-0.324613213539124,-9.69671154022217,-0.477748781442642,-0.004878247622400522,-0.005386151373386383,0.0015582472551614046
7248607873,-0.330489754676819,-9.72203350067139,-0.472600102424622,-0.005165419541299343,-0.005063687916845083,-0.0002787552948575467
7269231796,-0.334250599145889,-9.71663475036621,-0.47154900431633,-0.005435186438262463,-0.00472103338688612,-0.0017907039728015661
7591079235,-0.349452793598175,-9.71327686309815,-0.4681656062603,-0.005746850278228521,-0.004262095782905817,-0.0024914315436035395
7668583393,-0.34401661157608,-9.71495914459229,-0.470211118459702,-0.00606876565143466,-0.0034091926645487547,-0.0024334192276000977
7678576231,-0.361256301403046,-9.71498203277588,-0.463831692934036,-0.006249350029975176,-0.0019695558585226536,-0.0022100936621427536
7698763847,-0.341571867465973,-9.71731948852539,-0.470628768205643,-0.00606447784230113,-0.00024381432740483433,-0.002385767176747322
7709708452,-0.349909067153931,-9.71259498596191,-0.471037060022354,-0.005474162753671408,0.0010291055077686906,-0.0028295221272855997
7721937417,-0.344808280467987,-9.71158027648926,-0.473491281270981,-0.00485648587346077,0.0012438081903383136,-0.0029286323115229607
7728682279,-0.343926608562469,-9.7109203338623,-0.470298051834106,-0.0046606711111962795,0.0003686066484078765,-0.0023456248454749584
7738881349,-0.345490783452988,-9.7126054763794,-0.469005465507507,-0.004851974081248045,-0.0011404305696487427,-0.0012295073829591274
7748470067,-0.355642229318619,-9.70687389373779,-0.471437066793442,-0.004958361852914095,-0.002679891185835004,-3.506788925733417e-05
7759210348,-0.351543128490448,-9.72441101074219,-0.46545946598053,-0.004536434542387724,-0.0038213813677430153,0.0006094121490605175
7779611587,-0.346715837717056,-9.7041597366333,-0.474182844161987,-0.003524298779666424,-0.004422204568982124,0.0003070168604608625
7790568113,-0.350677698850632,-9.71731376647949,-0.474410176277161,-0.0023144467268139124,-0.004442952573299408,-0.0007351881940849125
7860178709,-0.350903451442719,-9.71428298950195,-0.465151101350784,-0.0014469812158495188,-0.003834908129647374,-0.0019581359811127186
7890675067,-0.343304693698883,-9.71192455291748,-0.464986681938171,-0.0012467860942706466,-0.0027348652947694063,-0.002862413413822651
7944965839,-0.354212492704392,-9.70652103424072,-0.468028008937836,-0.001772937597706914,-0.0015668076230213046,-0.003133182879537344
8110893011,-0.344698816537857,-9.71158313751221,-0.469365656375885,-0.0028552422299981117,-0.0007598031661473215,-0.002682153834030032
8122987508,-0.344083100557327,-9.71191787719727,-0.469413220882416,-0.004029220901429653,-0.0004522270755842328,-0.0017004142282530665
8138907194,-0.34059727191925,-9.69942474365234,-0.473819196224213,-0.004544656723737717,-0.0004526783595792949,-0.0006260767113417387
8149041175,-0.345441490411758,-9.70989322662354,-0.47195428609848,-0.0038193813525140285,-0.0004192027263343334,0.00010784479673020542
8159865617,-0.338411301374435,-9.71426773071289,-0.471271067857742,-0.0020616217516362667,-0.00018359319074079394,0.00035204857704229653
8168770313,-0.344015091657639,-9.71090316772461,-0.466899514198303,-3.4913173294626176e-05,0.0001545513077871874,0.00014668628864455968
8216168403,-0.355924010276794,-9.71292400360108,-0.472802191972733,0.001736737904138863,0.00039572647074237466,-0.0004642541171051562
8270419597,-0.341170877218247,-9.70313358306885,-0.472760140895844,0.0030616475269198418,0.0002576690458226949,-0.0013365066843107343
8285583019,-0.346181362867355,-9.71224498748779,-0.474836677312851,0.0037187449634075165,-0.0004601386608555913,-0.0021122039761394262
8289327859,-0.334987252950668,-9.71867752075195,-0.457616567611694,0.0035098751541227102,-0.0015223065856844187,-0.002286667935550213
8298980236,-0.345257163047791,-9.71293926239014,-0.458965629339218,0.0025329815689474344,-0.0024847195018082857,-0.0014517439994961023
8308799266,-0.336984485387802,-9.71495628356934,-0.463453859090805,0.0012045170878991485,-0.0031592154409736395,0.0003725831338670105
8319246768,-0.342198044061661,-9.72574806213379,-0.471524387598038,5.7657365687191486e-05,-0.003535731229931116,0.0026532334741204977
8330537796,-0.341873615980148,-9.70684432983398,-0.469486981630325,-0.0005188646027818322,-0.0036065704189240932,0.004666654858738184
8338920354,-0.348024725914001,-9.71088886260987,-0.470729678869247,-0.0005162237794138491,-0.0034178642090409994,0.005954818334430456
8352715015,-0.344957143068314,-9.70821189880371,-0.462656468153,-0.0002466899750288576,-0.003005731152370572,0.00649081077426672
8358988285,-0.346375942230225,-9.72033596038819,-0.475662767887115,6.440985544031719e-06,-0.002370382659137249,0.006403298582881689
8379071950,-0.335861682891846,-9.70380687713623,-0.470873147249222,0.00016594045155216008,-0.0016612394247204065,0.005635887384414673
8531345605,-0.329716682434082,-9.71932888031006,-0.469571948051453,0.0002536553656682372,-0.0010906148236244917,0.004028926603496075
8581458806,-0.331994533538818,-9.70920467376709,-0.475485533475876,0.0002253353304695338,-0.0006222593947313726,0.0017021948006004095
8605892419,-0.32906910777092,-9.71391773223877,-0.481952220201492,-2.2993066522758454e-05,-0.00010660952102625743,-0.0008001089445315301
8615377664,-0.327950865030289,-9.71122264862061,-0.471425473690033,-0.00047328558866865933,0.0003993372374679893,-0.0027301255613565445
8633229494,-0.32081800699234,-9.70818710327148,-0.473330587148666,-0.0009766345610842109,0.0007887452957220376,-0.003524967236444354
8648680210,-0.322396993637085,-9.7095537185669,-0.468423694372177,-0.0014803129015490413,0.0011319669429212809,-0.003212927607819438
8668673753,-0.3349769115448,-9.70651245117188,-0.469107776880264,-0.0021083359606564045,0.00145843590144068,-0.0024162137415260077
8678897142,-0.317111134529114,-9.70987606048584,-0.47428971529007,-0.0028945975936949253,0.0015404297737404704,-0.0017778420588001609
8739387035,-0.323483407497406,-9.72303295135498,-0.475694417953491,-0.0035318084992468357,0.0011314528528600931,-0.0014826991828158498
8762054681,-0.320817589759827,-9.70953559875488,-0.470777332782745,-0.0035989934112876654,0.00026876822812482715,-0.0013518529012799263
8768987894,-0.312731564044952,-9.72336483001709,-0.470580756664276,-0.003059633541852236,-0.0008038420928642154,-0.0011830562725663185
8778842687,-0.323445826768875,-9.70785713195801,-0.471625566482544,-0.00237205158919096,-0.001802413142286241,-0.0008723763166926801
8798611402,-0.324631959199905,-9.72370719909668,-0.475402683019638,-0.0020393820013850927,-0.0024074309039860964,-0.0003547360247466713
8808482408,-0.320344239473343,-9.70955085754395,-0.468893617391586,-0.0021219966001808643,-0.002351647475734353,0.0002850148011930287
8852672338,-0.307339459657669,-9.71798515319824,-0.466684520244598,-0.0021831959020346403,-0.001586645026691258,0.0007110705482773483
8873090267,-0.333169490098953,-9.72270774841309,-0.479187726974487,-0.001721516833640635,-0.0002741671050898731,0.0006321521941572428
8930045843,-0.313163936138153,-9.70853900909424,-0.466217935085297,-0.0006893992540426552,0.0013285907916724682,0.0001673127117101103
8949491024,-0.327490210533142,-9.71021842956543,-0.470701038837433,0.0005215585115365684,0.0029259645380079746,-0.00023246138880494982
8980409860,-0.306496888399124,-9.72741413116455,-0.475953757762909,0.0014875030610710382,0.004213739186525345,-0.00020600731659214944
9031958341,-0.296406626701355,-9.71425437927246,-0.479472279548645,0.0019514813320711255,0.004873528610914946,0.00026424642419442534
9038675069,-0.311062514781952,-9.71831798553467,-0.472668409347534,0.0018673475133255124,0.004581141751259565,0.0009340537944808602
9051386594,-0.313240677118301,-9.70615673065186,-0.481032103300095,0.0014202354941517115,0.0031698979437351227,0.0014629106735810637
9058649301,-0.304460048675537,-9.70784759521484,-0.466195017099381,0.0007804595516063273,0.000849757925607264,0.0015471229562535882
9079019069,-0.313869535923004,-9.72033786773682,-0.469103366136551,-9.56112053245306e-05,-0.0017670394154265523,0.001044311560690403
9098820209,-0.313641220331192,-9.71256446838379,-0.478473395109177,-0.0011623166501522064,-0.003973946440964937,7.393328996840864e-05
9508416414,-0.313193947076798,-9.71663188934326,-0.4732965528965,-0.002013702876865864,-0.0054007540456950665,-0.0010109508875757456
9517687082,-0.309420764446259,-9.71762943267822,-0.475570380687714,-0.002197267720475793,-0.006122229620814323,-0.001802297425456345
9527847051,-0.310384273529053,-9.71628570556641,-0.472427994012833,-0.0016665746225044131,-0.006323432084172964,-0.0020642855670303106
9541471481,-0.315493404865265,-9.72237396240234,-0.468593746423721,-0.0007453987491317093,-0.005892780609428883,-0.0019319943385198712
9564079046,-0.312481671571732,-9.70853137969971,-0.471948355436325,0.00023484716075472534,-0.004532103892415762,-0.0017162476433441043
9568023204,-0.300456315279007,-9.7101936340332,-0.48360201716423,0.001056533888913691,-0.0023246982600539923,-0.0014297494199126959
9579766273,-0.307877838611603,-9.70851039886475,-0.480258405208588,0.0015165419317781925,6.488682265626267e-05,-0.0008667450165376067
9587910413,-0.309236407279968,-9.71830272674561,-0.482812255620956,0.0014621741138398647,0.0018205229425802827,-2.7915875762118958e-05
9599737167,-0.308712661266327,-9.71055889129639,-0.467658281326294,0.0008976405370049179,0.0024899437557905912,0.0008977495599538088
9608179807,-0.305707216262817,-9.71528625488281,-0.470494866371155,-5.9391979448264465e-05,0.0022046577651053667,0.0017616470577195287
9619751214,-0.306099355220795,-9.71324253082276,-0.474479138851166,-0.0013282410800457,0.001513635041192174,0.0024734982289373875
9628008604,-0.306720823049545,-9.70616817474365,-0.473238527774811,-0.002869785064831376,0.0008808578131720424,0.002970142988488078
9638369798,-0.319473028182983,-9.72033882141113,-0.472651153802872,-0.004455117974430323,0.00040273473132401705,0.003207531990483403
9647881507,-0.305087506771088,-9.71899127960205,-0.467041701078415,-0.005612003151327372,4.09546191804111e-05,0.0030547892674803734
9657949209,-0.306070148944855,-9.70548248291016,-0.476830720901489,-0.00592179736122489,-0.0001936448534252122,0.0022772091906517744
9668332338,-0.309156745672226,-9.70177841186523,-0.474976569414139,-0.005150163546204567,-0.0002928264148067683,0.0008322115754708648
9678192377,-0.308997958898544,-9.71460819244385,-0.468334376811981,-0.0032748887315392494,-0.00029976930818520486,-0.0008782059885561466
9688517808,-0.31893789768219,-9.70787048339844,-0.471442133188248,-0.0007666437304578722,-0.0003805286542046815,-0.002213450148701668
9699351072,-0.316301226615906,-9.71360397338867,-0.464082330465317,0.001494192285463214,-0.0007176402723416686,-0.002663854043930769
9708524703,-0.322447150945664,-9.71594429016113,-0.479032456874847,0.0027942208107560873,-0.001186703215353191,-0.0020641637966036797
9718885183,-0.308769464492798,-9.71494102478027,-0.471360743045807,0.002926142420619726,-0.0013838468585163355,-0.0007064401870593429
9728663921,-0.313760429620743,-9.71191787719727,-0.465894252061844,0.002236295025795698,-0.0010454027215018868,0.0007565102423541248
9738775014,-0.312124460935593,-9.70851898193359,-0.480463624000549,0.001379700843244791,-0.0002803585084620863,0.001675967825576663
9750111818,-0.318057030439377,-9.70278835296631,-0.476648241281509,0.0007575632771477103,0.0005396385677158833,0.0017945626750588417
9759657144,-0.310253202915192,-9.72439193725586,-0.473071545362473,0.0003653359890449792,0.001114100799895823,0.0013741485308855772
9768564224,-0.3100446164608,-9.716628074646,-0.473075449466705,0.00013077424955554307,0.0014791268622502685,0.0008727124659344554
9780241966,-0.317585974931717,-9.70885562896729,-0.482047826051712,2.1970939997117966e-05,0.001783711719326675,0.00045935504022054374
9792054653,-0.328908860683441,-9.71595191955566,-0.476614207029343,-2.7013007638743147e-05,0.0019015508005395532,2.965736530313734e-05
9799180269,-0.320962339639664,-9.70987701416016,-0.474639236927032,-9.027696796692908e-05,0.0015186925884336233,-0.0004303510650061071
9809867620,-0.312565237283707,-9.71931648254395,-0.481482088565826,-0.0002570178476162255,0.000529561541043222,-0.0008079497492872179
9818425416,-0.312435388565063,-9.71696376800537,-0.468048214912415,-0.0006113373674452305,-0.0008236968424171209,-0.001011609216220677
9829176187,-0.311498761177063,-9.70819187164307,-0.477871865034103,-0.001218609162606299,-0.0021104097831994295,-0.0009023890597745776
9839996814,-0.315540283918381,-9.70952701568604,-0.481064945459366,-0.0021943545434623957,-0.002935940632596612,-0.00028035242576152086
9875069618,-0.321593374013901,-9.71426486968994,-0.473426938056946,-0.0035135983489453793,-0.003206998808309436,0.000829590018838644
9887451410,-0.320861041545868,-9.71899223327637,-0.476073861122131,-0.004781474359333515,-0.0031744507141411304,0.002084390725940466
9894599676,-0.315386205911636,-9.72270774841309,-0.473284631967545,-0.0055395872332155704,-0.003125937655568123,0.0031509932596236467
9898101806,-0.321002244949341,-9.70987224578858,-0.478715389966965,-0.005594196729362011,-0.0031931507401168346,0.003814880270510912
9998417615,-0.317520529031754,-9.71696472167969,-0.474368840456009,-0.004903733264654875,-0.0034052536357194185,0.003804979845881462
10013210296,-0.324783533811569,-9.70819473266602,-0.473014324903488,-0.003598434617742896,-0.003798040794208646,0.00300023565068841
10018634319,-0.308741688728333,-9.72168254852295,-0.474266290664673,-0.002129756612703204,-0.004458130337297916,0.0018071061931550503
10028452634,-0.315222322940826,-9.72066783905029,-0.48113289475441,-0.0009948218939825892,-0.0052923052571713924,0.0009143493371084332
10039908647,-0.322920501232147,-9.7166223526001,-0.473500639200211,-0.0004255232051946223,-0.005744865629822016,0.0006641835789196193
10048414945,-0.310793668031693,-9.70887851715088,-0.470714956521988,-0.0004687697801273316,-0.0050697047263383865,0.0009132837876677513
10058113098,-0.312934756278992,-9.7129077911377,-0.481154769659042,-0.0010274697560817003,-0.0030841282568871975,0.0013627014122903347
10069061994,-0.31606462597847,-9.7014274597168,-0.475159764289856,-0.0018493678653612733,-0.0005018984084017575,0.0018031588988378644
10078786849,-0.31543555855751,-9.72203063964844,-0.474391132593155,-0.002768811071291566,0.0015030931681394577,0.0020905472338199615
10092134475,-0.321306467056274,-9.71189403533936,-0.479518115520477,-0.0037663686089217663,0.001958383247256279,0.0020096958614885807
10502307891,-0.321257352828979,-9.71358585357666,-0.477426260709763,-0.004650813527405262,0.0007021851488389075,0.0013773376122117043
10509427309,-0.311246186494827,-9.72133922576904,-0.47850039601326,-0.005066053941845894,-0.0014708598610013723,0.00029148353496566415
10648696422,-0.325486481189728,-9.70783996582031,-0.483522146940231,-0.004946449305862188,-0.003574693575501442,-0.0008945652516558766
10728742599,-0.333645135164261,-9.71360111236572,-0.472089797258377,-0.004611765034496784,-0.005231535527855158,-0.0018200132763013244
10738845109,-0.332844436168671,-9.70820617675781,-0.470087915658951,-0.004371570888906717,-0.0066109225153923035,-0.0023592410143464804
11199012756,-0.324243813753128,-9.70684146881104,-0.473777145147324,-0.004291310906410217,-0.007881278172135353,-0.0026493361219763756
11208625316,-0.330398917198181,-9.71056270599365,-0.472628712654114,-0.004235214088112116,-0.00880681723356247,-0.002791184699162841
11221095561,-0.3219955265522,-9.70245265960694,-0.480265825986862,-0.004010186530649662,-0.008906938135623932,-0.002652302384376526
11327802181,-0.327752619981766,-9.71596717834473,-0.46870881319046,-0.003594429465010762,-0.008054746314883232,-0.0020841918885707855
11331661462,-0.333815485239029,-9.72068881988526,-0.469871461391449,-0.0030544849578291178,-0.006709534674882889,-0.0011640760349109769
11339096784,-0.334967702627182,-9.7149658203125,-0.468318849802017,-0.0022746543399989605,-0.0054437885992228985,-0.0001669847988523543
11360192537,-0.322010695934296,-9.71392822265625,-0.473001748323441,-0.0011368683772161603,-0.004398795776069164,0.0006092707044444978
11368522644,-0.319017797708511,-9.71661949157715,-0.473894864320755,0.0002518548280932009,-0.003371278289705515,0.0010191553737968206
11452292203,-0.330123960971832,-9.71933269500733,-0.478838384151459,0.0017256248975172639,-0.0022538418415933847,0.0010731345973908901
11468741416,-0.322996973991394,-9.70785808563233,-0.478537946939468,0.0031968632247298956,-0.0010696410899981856,0.000807922100648284
11526717901,-0.329722911119461,-9.71324920654297,-0.479393184185028,0.0045057013630867004,0.00020135074737481773,0.0003301228571217507
11558079957,-0.311044752597809,-9.72269821166992,-0.475118070840836,0.005197805352509022,0.0014974065124988556,-2.5963316147681326e-05
11631788253,-0.324002504348755,-9.72203731536865,-0.46931192278862,0.004639966879040003,0.0025475905276834965,9.67164451139979e-05
11678984880,-0.322970241308212,-9.71696949005127,-0.473251104354858,0.002576850587502122,0.003134355880320072,0.0006103593623265624
11699959754,-0.324930429458618,-9.71561336517334,-0.478067487478256,-0.0003794943040702492,0.0034337295219302177,0.001004500431008637
11710839271,-0.326926171779633,-9.70278263092041,-0.477712869644165,-0.0029749535024166107,0.0037707642186433077,0.0009041743469424546
11719198226,-0.335151463747025,-9.71799755096436,-0.465178817510605,-0.004194339271634817,0.004047839902341366,0.00041222633444704115
11730496406,-0.326041221618652,-9.72001075744629,-0.471580177545548,-0.0038967833388596773,0.0038094036281108856,-9.54678253037855e-05
11758351087,-0.326643884181976,-9.71967697143555,-0.465955525636673,-0.002570555079728365,0.002876670565456152,-0.0003804416919592768
11762698650,-0.327116906642914,-9.71562385559082,-0.471159338951111,-0.000723519769962877,0.0014930643374100327,-0.0004619671090040356
11768336057,-0.317226976156235,-9.69670867919922,-0.480140745639801,0.001183846383355558,-0.00019918537873309106,-0.00036109035136178136
11778951168,-0.329957395792008,-9.71053218841553,-0.487819641828537,0.0024910576175898314,-0.002260736655443907,-2.5692886538308812e-06
11790071010,-0.324104249477386,-9.71527290344238,-0.480702698230743,0.0025837465655058622,-0.004424664657562971,0.0005619743023999035
11833564996,-0.327927082777023,-9.71796989440918,-0.475704669952393,0.0014337357133626938,-0.0059164841659367085,0.0011242952896282077
11840014696,-0.325264722108841,-9.72304058074951,-0.473818838596344,-0.00031427154317498207,-0.005907346494495869,0.0015223058871924877
11848322629,-0.327306807041168,-9.7183256149292,-0.465027898550034,-0.0018421628046780825,-0.004196235444396734,0.0017330520786345005
11868177175,-0.326172709465027,-9.70752239227295,-0.47049018740654,-0.0026757833547890186,-0.0015637112082913518,0.0018332116305828094
11878177165,-0.327879250049591,-9.7126054763794,-0.460749387741089,-0.0028408702928572893,0.0006814857479184866,0.0019150895532220602
11888645410,-0.332112610340118,-9.71123695373535,-0.470233857631683,-0.0027746388223022223,0.0015095786657184362,0.0019827280193567276
11901209592,-0.315927296876907,-9.71461486816406,-0.464256197214127,-0.002959098666906357,0.00061701366212219,0.0018725359113886952
11909055709,-0.324090033769608,-9.71932125091553,-0.476371824741364,-0.0034262335393577814,-0.0014316197484731674,0.0013115478213876486
11919401407,-0.331199735403061,-9.72003078460694,-0.464221656322479,-0.003780561266466975,-0.003435668768361211,0.00023571900965180248
11929967164,-0.331841468811035,-9.72103595733643,-0.470686703920364,-0.0037190215662121773,-0.0044137719087302685,-0.0008826782577671111
11946581125,-0.335018128156662,-9.71394920349121,-0.462736278772354,-0.00329502671957016,-0.004314227495342493,-0.0012773533817380667
11949636220,-0.339685499668121,-9.71798706054688,-0.469516724348068,-0.0027843937277793884,-0.003732153680175543,-0.0005670476821251214
11959072351,-0.328436434268951,-9.72508811950684,-0.46375235915184,-0.002467889105901122,-0.003157834755256772,0.0008840571390464902
12028853654,-0.329062700271606,-9.70718383789062,-0.472244262695312,-0.0023884775582700968,-0.0026697127614170313,0.0021736861672252417
12040422201,-0.314414620399475,-9.70785617828369,-0.4723159968853,-0.0022825419437140226,-0.002134129637852311,0.0024910003412514925
12059895992,-0.329771906137466,-9.70717334747315,-0.481053054332733,-0.0019001519540324807,-0.0014685917412862182,0.0017069661989808083
12091211080,-0.318294018507004,-9.70549869537354,-0.46988520026207,-0.0013428356032818556,-0.0007092872983776033,0.0002861901302821934
12102793931,-0.325095891952515,-9.71392726898194,-0.476888716220856,-0.0009663334349170327,4.745409023598768e-05,-0.0012078970903530717
12108723402,-0.329675883054733,-9.71324253082276,-0.474711447954178,-0.0010068502742797136,0.0006148942629806697,-0.0023284591734409332
12771674394,-0.313622504472733,-9.70346736907959,-0.477718740701675,-0.0014202028978616,0.0007020545308478177,-0.002791901584714651
12791903018,-0.317430526018143,-9.71696567535401,-0.476630628108978,-0.0020275311544537544,0.00019939597405027598,-0.0026220285799354315
12862147808,-0.313169360160828,-9.72472763061523,-0.48034143447876,-0.002646596170961857,-0.0005752972792834044,-0.0021869465708732605
12884101390,-0.326796591281891,-9.71122646331787,-0.47720941901207,-0.003135582199320197,-0.001117138541303575,-0.0019802190363407135
12901162624,-0.324230223894119,-9.70483589172363,-0.462201803922653,-0.0034130422864109278,-0.00111741095315665,-0.0023064003325998783
12908915281,-0.323495537042618,-9.71628475189209,-0.470999538898468,-0.003430633805692196,-0.0005497008678503335,-0.0030751375015825033
12920576572,-0.324724614620209,-9.71527862548828,-0.4763123691082,-0.003258487908169627,0.00040884644840843976,-0.0038053037133067846
13029621124,-0.322666257619858,-9.71562480926514,-0.471485406160355,-0.003142508678138256,0.0014496279181912541,-0.0038960434030741453
13039897441,-0.32084932923317,-9.70888042449951,-0.466641187667847,-0.0032121457625180483,0.002249061595648527,-0.0030354822520166636
13295163869,-0.341336071491241,-9.71157360076904,-0.468912988901138,-0.003316433634608984,0.0025693667121231556,-0.0013658229727298021
13302239418,-0.332099199295044,-9.71593570709229,-0.481377959251404,-0.003380994312465191,0.002332947449758649,0.0006220280192792416
13308834552,-0.327133983373642,-9.70820236206055,-0.466467380523682,-0.0035640201531350613,0.0017254637787118554,0.002199397422373295
13401013612,-0.323280900716782,-9.71529006958008,-0.464624732732773,-0.0039021307602524757,0.001096460036933422,0.002658175304532051
13439188003,-0.324477314949036,-9.71056175231934,-0.467918157577515,-0.004149321001023054,0.0006359811522997916,0.0017703601624816656
13538356304,-0.321453213691711,-9.72135353088379,-0.472992986440659,-0.0039590573869645596,0.00025090615963563323,2.3243279429152608e-05
13559619426,-0.322574734687805,-9.72033023834229,-0.476319253444672,-0.003121300833299756,-0.00020447280257940292,-0.0016978306230157614
13568876743,-0.333536416292191,-9.71225070953369,-0.47179725766182,-0.001828943146392703,-0.0006692101596854627,-0.0027631581760942936
13583130598,-0.321921139955521,-9.70415306091309,-0.468399852514267,-0.0006386153982020915,-0.000945206789765507,-0.003140086540952325
13600188255,-0.318916797637939,-9.71561527252197,-0.479402810335159,4.76787909065024e-06,-0.0010163718834519386,-0.0031604093965142965
13609247207,-0.321190536022186,-9.70178031921387,-0.475873321294785,6.723914702888578e-05,-0.0011545214802026749,-0.0031170998699963093
13639631032,-0.329029202461243,-9.70920753479004,-0.470391482114792,-0.00020167093316558748,-0.0016220646211877465,-0.0030844761058688164
13648436307,-0.328346341848373,-9.71462249755859,-0.464732140302658,-0.0005345983663573861,-0.002371750306338072,-0.0029902139212936163
13659501791,-0.331423759460449,-9.70818710327148,-0.475141763687134,-0.0009025784092955291,-0.003094449872151017,-0.002780419774353504
13681243896,-0.322831928730011,-9.7223653793335,-0.479414880275726,-0.0014836967457085848,-0.003443240188062191,-0.002554567065089941
13690990686,-0.32405635714531,-9.72069549560547,-0.466066241264343,-0.0022643846459686756,-0.0031783878803253174,-0.002564389491453767
13709407806,-0.316762685775757,-9.70786571502686,-0.465604156255722,-0.0029080547392368317,-0.002259866101667285,-0.003009797539561987
13729737281,-0.326348930597305,-9.71090316772461,-0.466162949800491,-0.00308026559650898,-0.0009534218697808683,-0.0037585801910609007
14674634695,-0.326509118080139,-9.71493148803711,-0.471471309661865,-0.002633302705362439,0.0002163740136893466,-0.004310052841901779
14688332796,-0.334728360176086,-9.71157646179199,-0.473595798015594,-0.0015982750337570906,0.0008239072631113231,-0.004172061569988728
14693036317,-0.32262858748436,-9.70684146881104,-0.468463450670242,-0.00027882770518772304,0.0008648550719954073,-0.0032714558765292168
14816264629,-0.318591296672821,-9.70954608917237,-0.469878673553467,0.0008272071136161685,0.0005677685257978737,-0.0019226662116125226
14897342681,-0.323093205690384,-9.72337245941162,-0.471432358026505,0.0013813285622745752,0.00010104911780217662,-0.0005297442548908293
14906115055,-0.326771289110184,-9.71528244018555,-0.471934020519257,0.0013254546793177724,-0.00035711535019800067,0.0006061836611479521
14919080257,-0.328721106052399,-9.71291923522949,-0.477892249822617,0.0006891738157719374,-0.0006024197791703045,0.001392233301885426
14925130605,-0.330856502056122,-9.72000694274902,-0.475304663181305,-0.0004509925202000886,-0.0005715011502616107,0.0019261863781139255
14934452056,-0.323978006839752,-9.71967124938965,-0.475220531225205,-0.0018342850962653756,-0.0003701869572978467,0.0023056897334754467
14938371896,-0.324345260858536,-9.71428489685059,-0.462766736745834,-0.0030201002955436707,-0.00016326582408510149,0.0024476260878145695
14950357198,-0.328465849161148,-9.70753002166748,-0.465106785297394,-0.003604783909395337,-0.00010030640987679362,0.0020291388500481844
14972453594,-0.322207748889923,-9.70245265960694,-0.482959121465683,-0.00343344546854496,-0.0002847585128620267,0.0007255141390487552
14979006767,-0.321314722299576,-9.70684623718262,-0.470824539661407,-0.0026153172366321087,-0.0006626126123592257,-0.0013016854645684361
14988791227,-0.329173266887665,-9.7119083404541,-0.47050341963768,-0.0014575523091480136,-0.0009703550022095442,-0.0032792191486805677
15001618623,-0.32652086019516,-9.71763610839844,-0.476989954710007,-0.00037958865868858993,-0.0009080685558728874,-0.004380098544061184
15021787166,-0.321757972240448,-9.71359062194824,-0.47141769528389,0.0002711146662477404,-0.00039770727744325995,-0.0043747322633862495
15029263019,-0.329311102628708,-9.71595764160156,-0.480864107608795,0.0003254951152484864,0.00030130386585369706,-0.0035832058638334274
15038591623,-0.324805438518524,-9.70144081115723,-0.47356578707695,-0.0002606430498417467,0.0007353274268098176,-0.002392611699178815
15048988819,-0.326163977384567,-9.70414257049561,-0.478438347578049,-0.0013503028312698007,0.0004969881847500801,-0.0011816190090030432
15059394598,-0.326098591089249,-9.70886611938477,-0.470997244119644,-0.0025721960701048374,-0.0005604170728474855,-0.00043559996993280947
15071404695,-0.319302916526794,-9.71865940093994,-0.474541872739792,-0.0035537611693143845,-0.0021273151505738497,-0.00045684431097470224
15081021785,-0.314509809017181,-9.72336959838867,-0.479019522666931,-0.0040476201102137566,-0.0035243856254965067,-0.00101192994043231
15092312812,-0.328319251537323,-9.71293258666992,-0.470136284828186,-0.0038754662964493036,-0.004191908985376358,-0.0014686546055600047
15129958629,-0.318691283464432,-9.71878051757812,-0.463884323835373,-0.003147280076518655,-0.004073339514434338,-0.0013759343419224024
15139878988,-0.334417432546616,-9.72450828552246,-0.469053387641907,-0.00229184003546834,-0.0034468381199985743,-0.0009030296350829303
15150053501,-0.320192247629166,-9.71538066864014,-0.477958619594574,-0.0015203534858301282,-0.0025598048232495785,-0.000624538108240813
15159160375,-0.326296895742416,-9.71369457244873,-0.482516676187515,-0.000652607879601419,-0.0015450954670086503,-0.0009151711710728705
16279946804,-0.218061402440071,-9.73964214324951,-0.476651966571808,0.000357343174982816,-0.0004425611987244338,-0.0016121803782880306
16291166782,-0.20431362092495,-9.72950649261475,-0.484384179115295,0.0010849240934476256,0.0007960771908983588,-0.00226278742775321
16300723791,-0.215552255511284,-9.7140007019043,-0.470503568649292,0.0009332199115306139,0.002116244751960039,-0.0026275631971657276
16320293188,-0.223223939538002,-9.69275569915772,-0.461714565753937,-0.00028543962980620563,0.0031506484374403954,-0.0027758360374718904
16328946590,-0.235502913594246,-9.6974687576294,-0.467978984117508,-0.0020701466128230095,0.003408891847357154,-0.002814839594066143
16342375040,-0.235216811299324,-9.71367931365967,-0.457241535186768,-0.0036007666494697332,0.002779328962787986,-0.0027919288258999586
16349439382,-0.234892502427101,-9.70154476165772,-0.450478911399841,-0.004411149770021439,0.0015822668792679906,-0.0027095370460301638
16359210014,-0.243057236075401,-9.69616794586182,-0.430854350328445,-0.0046049002557992935,0.00020423180831130594,-0.002492148894816637
16371325254,-0.252967655658722,-9.70730400085449,-0.432335436344147,-0.004440976772457361,-0.0009759487584233284,-0.002078497549518943
16509779214,-0.23315466940403,-9.73661422729492,-0.45033198595047,-0.004021625034511089,-0.0017036503413692117,-0.0015218374319374561
16519618749,-0.264031052589417,-9.74742221832276,-0.456573873758316,-0.0034649523440748453,-0.0020968508906662464,-0.0009543235064484179
16555052757,-0.303287208080292,-9.7264986038208,-0.471777886152268,-0.0030410471372306347,-0.0024335465859621763,-0.0004948840942233801
16561203956,-0.308671534061432,-9.72852516174316,-0.47863695025444,-0.002976667834445834,-0.0028190012089908123,-0.00014194674440659583
16580097198,-0.312872558832169,-9.72616386413574,-0.479568779468536,-0.0032515907660126686,-0.0032968511804938316,0.00020492014300543815
16599513292,-0.306728303432465,-9.71269416809082,-0.46628150343895,-0.0036558143328875303,-0.004067827947437763,0.000601317617110908
16620596170,-0.276629090309143,-9.68871784210205,-0.467829674482346,-0.003960850648581982,-0.005269110202789307,0.0009982263436540961
17010663032,-0.402007728815079,-9.6876163482666,-0.591710329055786,-0.003971107769757509,-0.006614975165575743,0.0012502373429015279
17049239397,-0.360131829977036,-9.6481351852417,-0.57943469285965,-0.003620586823672056,-0.007448204327374697,0.0011191768571734428
17059083938,-0.344537377357483,-9.65857982635498,-0.58401894569397,-0.0031509834807366133,-0.00708398362621665,0.0003598640614654869
17068549871,-0.341726988554001,-9.67848968505859,-0.585770905017853,-0.0030388874001801014,-0.005231588613241911,-0.0010242753196507692
17079278230,-0.333793848752976,-9.69030570983887,-0.578181982040405,-0.0037504113279283047,-0.0023262002505362034,-0.0026586358435451984
17089253902,-0.34211653470993,-9.7155876159668,-0.591360092163086,-0.0054949489422142506,0.0006201589130796492,-0.004119495861232281
17139381408,-0.394552797079086,-9.63360118865967,-0.577892482280731,-0.008002955466508865,0.0026549980975687504,-0.005210276693105698
17148996114,-0.393433600664139,-9.66768455505371,-0.578658521175385,-0.010614809580147266,0.003417921718209982,-0.005802063271403313
17161190509,-0.397691935300827,-9.72537612915039,-0.582866072654724,-0.012686892412602901,0.003126906929537654,-0.005716560408473015
17169837951,-0.413778841495514,-9.75540161132812,-0.58858585357666,-0.013912936672568321,0.0022476643789559603,-0.004922777879983187
17179032564,-0.404475718736649,-9.76759910583496,-0.570108950138092,-0.014390137977898121,0.00128514738753438,-0.0036325203254818916
17188644886,-0.398865103721619,-9.73285388946533,-0.552925765514374,-0.014472690410912037,0.0006425724714063108,-0.0021238266490399837
17198701620,-0.387524217367172,-9.68596172332764,-0.522893786430359,-0.0144817428663373,0.0003880044387187809,-0.0006505536148324609
17729373931,-0.353938817977905,-9.82338237762451,-0.466599732637405,-0.014527607709169388,0.0002504378790035844,0.00047602789709344506
17741199016,-0.309779018163681,-9.74983310699463,-0.456046551465988,-0.01455278042703867,-5.3660725825466216e-05,0.0009060905431397259
17748920679,-0.317869067192078,-9.6958589553833,-0.441844940185547,-0.014465853571891785,-0.0006006236653774977,0.000459360919194296
17776099443,-0.247168466448784,-9.64144706726074,-0.477393448352814,-0.014355748891830444,-0.0012561205076053739,-0.0006784657598473132
17809453010,-0.283804714679718,-9.70683383941651,-0.583610892295837,-0.014499026350677013,-0.001752236275933683,-0.0019929104018956423
17858576297,-0.328011482954025,-9.60805606842041,-0.497203052043915,-0.015031038783490658,-0.0019129742868244648,-0.0028368220664560795
17909076452,-0.398287236690521,-9.64139461517334,-0.528468072414398,-0.015858519822359085,-0.0018620402552187443,-0.0026331674307584763
17919135332,-0.410016357898712,-9.64578723907471,-0.52349591255188,-0.016842404380440712,-0.0019280887208878994,-0.0011835246114060283
18129405975,-0.395992904901505,-9.63871669769287,-0.540054082870483,-0.017804458737373352,-0.0022902318742126226,0.001057551009580493
18140106201,-0.495871841907501,-9.64743900299072,-0.601533174514771,-0.018604712560772896,-0.002652418101206422,0.003189810086041689
18150131464,-0.451812386512756,-9.71962261199951,-0.612474203109741,-0.019334491342306137,-0.002386909443885088,0.004382226150482893
18161511421,-0.366758018732071,-9.66633129119873,-0.585022926330566,-0.0201468076556921,-0.0012076518032699823,0.004229901824146509
18170224428,-0.321723908185959,-9.58566093444824,-0.561742603778839,-0.020991865545511246,0.00041877638432197273,0.0029387418180704117
18228855609,-0.333044648170471,-9.7682523727417,-0.573659360408783,-0.02174181304872036,0.0017058269586414099,0.0012110060779377818
18279197216,-0.366143733263016,-9.7824592590332,-0.549788355827332,-0.0223844051361084,0.0022183030378073454,-0.00022119053755886853
18301171064,-0.332528054714203,-9.79871273040772,-0.529525876045227,-0.022947361692786217,0.001973288832232356,-0.000944000668823719
18359419822,-0.349383234977722,-9.72787284851074,-0.522383689880371,-0.02334839105606079,0.0010969005525112152,-0.0009246243280358613
18409359931,-0.321458280086517,-9.69003391265869,-0.563539266586304,-0.023441998288035393,-0.0002907449961639941,-0.0004979680525138974
18419256687,-0.311155289411545,-9.6343879699707,-0.52544504404068,-0.02319919317960739,-0.0018792550545185804,-0.00011393050954211503
18429785490,-0.33553072810173,-9.63203144073487,-0.514412224292755,-0.02274254895746708,-0.003148161107674241,9.966781362891197e-05
18439096212,-0.352811396121979,-9.66579341888428,-0.504319369792938,-0.022224605083465576,-0.003588293679058552,0.0003814495576079935
18489680290,-0.345710724592209,-9.78115463256836,-0.540541231632233,-0.021690048277378082,-0.0029917212668806314,0.0010158405639231205
18534715175,-0.339588016271591,-9.61213970184326,-0.500663995742798,-0.021094828844070435,-0.00167852861341089,0.002098360098898411
18760831832,-0.279679417610168,-9.68259334564209,-0.503390491008759,-0.020586112514138222,-0.00030562569736503065,0.0033966314513236284
18768974781,-0.27613839507103,-9.66237449645996,-0.480523973703384,-0.02053174003958702,0.0005895664216950536,0.00439334474503994
18777750968,-0.284702181816101,-9.66946887969971,-0.4807049036026,-0.021079381927847862,0.0007729094359092414,0.00469229044392705
19297473430,-0.338562667369843,-9.78731441497803,-0.48577407002449,-0.02199506014585495,0.0002726554812397808,0.004369133152067661
19303393602,-0.34106919169426,-9.78392791748047,-0.509744226932526,-0.022996142506599426,-0.0006306711002252996,0.003857257543131709
19309563398,-0.3421231508255,-9.7926778793335,-0.534178614616394,-0.023868581280112267,-0.0014545158483088017,0.00356353260576725
19338552236,-0.373059272766113,-9.78318881988526,-0.629955232143402,-0.024275457486510277,-0.0018015203531831503,0.0035746945068240166
19348059415,-0.389953196048737,-9.76532554626465,-0.645605683326721,-0.023910053074359894,-0.0016524252714589238,0.003671962535008788
19369729995,-0.337267309427261,-9.7160530090332,-0.662013173103333,-0.02282717451453209,-0.0012379284016788006,0.003572015091776848
19388103961,-0.378122240304947,-9.68535804748535,-0.650385856628418,-0.021358976140618324,-0.000750690815038979,0.003161137457937002
19410661458,-0.417121082544327,-9.67389678955078,-0.666394531726837,-0.019919635728001595,-0.00027644014335237443,0.0025756421964615583
19429517269,-0.408027499914169,-9.64589309692383,-0.611502051353455,-0.01901266910135746,0.00012391075142659247,0.00208454392850399
19449227571,-0.48025193810463,-9.59117984771729,-0.641067206859589,-0.0190683975815773,0.0002940746198873967,0.0019473200663924217
19458255529,-0.498412191867828,-9.62019443511963,-0.641110301017761,-0.020054928958415985,0.00012603995855897665,0.0023110255133360624
19508546352,-0.338825643062592,-9.72790145874023,-0.511602461338043,-0.02143068239092827,-0.00014677441504318267,0.003018128452822566
19517963409,-0.28780335187912,-9.73837280273438,-0.484359502792358,-0.022622693330049515,-0.00017421465599909425,0.0036023808643221855
19529178619,-0.221884697675705,-9.72655391693115,-0.466590136289597,-0.023463645949959755,0.00012613771832548082,0.003720526583492756
19948392152,-0.176198095083237,-9.57235336303711,-0.550219535827637,-0.024128984659910202,0.0006790632614865899,0.003458350896835327
19959183216,-0.221712797880173,-9.6806468963623,-0.575724482536316,-0.024806400761008263,0.0014140161219984293,0.003013916779309511
19968482732,-0.265658050775528,-9.78364562988281,-0.541661202907562,-0.025483351200819016,0.0021949922665953636,0.002286668634042144
19978106737,-0.256991475820541,-9.73036956787109,-0.510975420475006,-0.025867978110909462,0.002832985483109951,0.0010441195918247104
19990887165,-0.273103088140488,-9.73176097869873,-0.491690069437027,-0.02549082785844803,0.0031766307074576616,-0.0005848924047313631
19999004364,-0.279840975999832,-9.78101921081543,-0.504706621170044,-0.02413276396691799,0.0031532414723187685,-0.001995587721467018
20038897037,-0.370844841003418,-9.75139713287354,-0.490134865045548,-0.022175060585141182,0.002876156708225608,-0.0025344141758978367
20209294795,-0.333724200725555,-9.79395580291748,-0.506993055343628,-0.02034934237599373,0.0026563312858343124,-0.0019010886317119002
20218493461,-0.326227188110352,-9.79263305664062,-0.493009120225906,-0.019209617748856544,0.0027296601328998804,-0.00018163715139962733
20837541341,-0.296310186386108,-9.60129547119141,-0.456727057695389,-0.018939059227705002,0.0030786534771323204,0.0021731602028012276
20848637104,-0.386120676994324,-9.67991542816162,-0.493251204490662,-0.01947673223912716,0.003512229770421982,0.004409599583595991
20858598709,-0.418753862380981,-9.74941444396973,-0.514269232749939,-0.02061828039586544,0.0037774716038256884,0.005864728707820177
20898786306,-0.360904693603516,-9.62862300872803,-0.472624838352203,-0.02201136201620102,0.0036593577824532986,0.006348923780024052
20926808595,-0.375493377447128,-9.64319896697998,-0.423651456832886,-0.02317734993994236,0.0030876921955496073,0.005996753461658955
20937767982,-0.370105028152466,-9.69719219207764,-0.412942737340927,-0.023686673492193222,0.002149858744814992,0.00496684992685914
20948531866,-0.330395400524139,-9.70529270172119,-0.399899065494537,-0.023481490090489388,0.0009427863406017423,0.0035746570210903883
20954196214,-0.32215291261673,-9.7157154083252,-0.41679972410202,-0.02291601523756981,-0.0004178582166787237,0.0024220705963671207
20957832813,-0.381284981966019,-9.71205043792725,-0.405347585678101,-0.02231101505458355,-0.0016185296699404716,0.001942307106219232
20969404220,-0.404405832290649,-9.78390789031983,-0.41928631067276,-0.021762564778327942,-0.0022458515595644712,0.0019514765590429306
20978043556,-0.403971284627914,-9.78462219238281,-0.412927061319351,-0.021481437608599663,-0.0020923963747918606,0.0019885797519236803
20987835407,-0.348639100790024,-9.71778297424316,-0.41007599234581,-0.021801751106977463,-0.0013750357320532203,0.0019086790271103382
20999259233,-0.344355881214142,-9.67222881317139,-0.402390956878662,-0.0227041132748127,-0.0006415924872271717,0.0018907353514805436
21542177438,-0.305986553430557,-9.71341991424561,-0.455966264009476,-0.023658649995923042,-0.0003966060176026076,0.0020732905250042677
21550945043,-0.302390456199646,-9.71308708190918,-0.44350865483284,-0.023989377543330193,-0.0008340089698322117,0.002386336913332343
21561710596,-0.315467298030853,-9.70904159545898,-0.439270079135895,-0.023371582850813866,-0.0017394516617059708,0.0027108420617878437
21609018325,-0.316047072410583,-9.70733642578125,-0.457795321941376,-0.02206161431968212,-0.0025614530313760042,0.0030556342098861933
21620254755,-0.284440398216248,-9.69751358032227,-0.472470045089722,-0.020612696185708046,-0.0027830079197883606,0.003464195877313614
21631934881,-0.305072903633118,-9.6975040435791,-0.484888941049576,-0.01942189782857895,-0.002269076183438301,0.003814875613898039
21640316009,-0.305245697498322,-9.68772506713867,-0.48254719376564,-0.01858716458082199,-0.001175365294329822,0.0037785712629556656
21650140047,-0.291630148887634,-9.68975353240967,-0.482482731342316,-0.018012993037700653,0.0003511426621116698,0.0030564707703888416
21658376216,-0.296395897865295,-9.68774127960205,-0.470397442579269,-0.017547860741615295,0.00212832260876894,0.001739375526085496
21856476306,-0.266540974378586,-9.67760372161865,-0.448855191469193,-0.017070218920707703,0.003689878387376666,0.0003463338653091341
21993667602,-0.281686931848526,-9.74271869659424,-0.464377880096436,-0.016551842913031578,0.0044840010814368725,-0.00050205341540277
22001731395,-0.272041916847229,-9.76128387451172,-0.462823510169983,-0.016178686171770096,0.0043796091340482235,-0.00045469077304005623
22063987016,-0.252039611339569,-9.69073486328125,-0.471799731254578,-0.016362078487873077,0.003777929348871112,0.00036858415114693344
22075891971,-0.25064080953598,-9.68636989593506,-0.455228805541992,-0.017450980842113495,0.0032398279290646315,0.0014866575365886092
22089153528,-0.235528126358986,-9.7046012878418,-0.441472381353378,-0.019374800845980644,0.0030494548846036196,0.0023381183855235577
22118954181,-0.238506615161896,-9.75992870330811,-0.441194176673889,-0.021527273580431938,0.0031342196743935347,0.0024789334274828434
22390652418,-0.410967230796814,-9.75860404968262,-0.571312546730042,-0.02305949293076992,0.003368081757798791,0.0018263963283970952
23025560140,-0.252180218696594,-9.68450546264648,-0.554651975631714,-0.02351190894842148,0.003748002229258418,0.0008827633573673666
23034288167,-0.286430448293686,-9.72904682159424,-0.563325107097626,-0.02306879498064518,0.004197675734758377,0.00046092289267107844
23041054248,-0.29014065861702,-9.73652935028076,-0.539809584617615,-0.022062841802835464,0.00444050133228302,0.0010428244713693857
23080191135,-0.222318917512894,-9.78475475311279,-0.545541167259216,-0.020612772554159164,0.004258973058313131,0.0024017903488129377
23089591503,-0.262216746807098,-9.81109428405762,-0.552286386489868,-0.018852973356842995,0.003683112096041441,0.003834531642496586
23109241008,-0.344048023223877,-9.79457378387451,-0.579179704189301,-0.01706155575811863,0.002770294900983572,0.0048867822624742985
23119275093,-0.344157516956329,-9.75040054321289,-0.570336282253265,-0.015501233749091625,0.0015071156667545438,0.005756993778049946
23139909029,-0.318207651376724,-9.69439697265625,-0.551343202590942,-0.014336002059280872,-4.0055565477814525e-05,0.006798184476792812
23323104381,-0.2482730448246,-9.77139949798584,-0.465946972370148,-0.013629701919853687,-0.0017336673336103559,0.007874161936342716
23329331398,-0.254050850868225,-9.74004077911377,-0.451313644647598,-0.013406735844910145,-0.0033060931600630283,0.008441603742539883
23431026697,-0.256001740694046,-9.70865631103516,-0.447667002677917,-0.013731434941291809,-0.004243962932378054,0.008127964101731777
23438363313,-0.250119566917419,-9.70297431945801,-0.409951984882355,-0.014634775929152966,-0.004135143011808395,0.007068888749927282
23489232301,-0.225106969475746,-9.62168979644776,-0.319463044404984,-0.015945494174957275,-0.003163789166137576,0.005639917217195034
23719987630,-0.50342071056366,-9.66890811920166,-0.523888051509857,-0.017212027683854103,-0.0019645742140710354,0.004032048862427473
23729130744,-0.482760429382324,-9.59902286529541,-0.5204758644104,-0.017786143347620964,-0.0009823234286159277,0.0022991045843809843
23739446640,-0.475460141897202,-9.55143833160401,-0.508597910404205,-0.0170539990067482,-0.0002775062748696655,0.0006208142731338739
23748381137,-0.482422530651093,-9.56186676025391,-0.528341770172119,-0.014776499941945076,0.00015364887076430023,-0.0006557803717441857
23838521957,-0.386455804109573,-9.62232875823975,-0.451222151517868,-0.011357522569596767,0.00027407592278905213,-0.0011409693397581577
23849462270,-0.391998648643494,-9.66249370574951,-0.454078793525696,-0.007661749143153429,0.00010134240437764674,-0.0006582299247384071
23859329223,-0.393841683864594,-9.68914222717285,-0.453217089176178,-0.004548271186649799,-0.0002574109239503741,0.0005494539509527385
23878561019,-0.446560889482498,-9.79716587066651,-0.440035670995712,-0.0027126010973006487,-0.0005898166564293206,0.0019103442318737507
23888714790,-0.473800897598267,-9.82082366943359,-0.425494521856308,-0.00250160600990057,-0.000665642786771059,0.002828821772709489
23930805206,-0.453358381986618,-9.7054557800293,-0.40094718337059,-0.003581129014492035,-0.0003648804558906704,0.002981972647830844
23938161134,-0.444707959890366,-9.71150493621826,-0.418514847755432,-0.005257324315607548,0.00029381332569755614,0.0024040064308792353
23949091434,-0.447926610708237,-9.75837898254395,-0.441530823707581,-0.006986680906265974,0.001163490698672831,0.0014189088251441717
23969495058,-0.404144555330277,-9.78732299804688,-0.503047585487366,-0.008257553912699223,0.0019575702026486397,0.0005357344634830952
23988768815,-0.313648372888565,-9.67320823669434,-0.525151133537292,-0.008503997698426247,0.002319838386029005,0.00019599222287070006
24541899204,-0.357684314250946,-9.57609558105469,-0.685670554637909,-0.007419728673994541,0.002058188198134303,0.0005059957620687783
24552298545,-0.324523478746414,-9.63477993011475,-0.715899229049683,-0.005139159504324198,0.0012992939446121454,0.001234029303304851
24561467170,-0.353926658630371,-9.69382858276367,-0.727913022041321,-0.002171333646401763,0.0003368030593264848,0.0020290380343794823
24579253196,-0.433973044157028,-9.80928897857666,-0.721249878406525,0.0007365642813965678,-0.0005772296572104096,0.0026230965740978718
24589974403,-0.428753107786179,-9.81881523132324,-0.664732754230499,0.002767958678305149,-0.0013292297953739762,0.0028866485226899385
24598723173,-0.321988970041275,-9.66221618652344,-0.614872038364411,0.003316763788461685,-0.0019977388437837362,0.002798162866383791
24608868598,-0.359434127807617,-9.59711647033691,-0.579119026660919,0.002298851730301976,-0.0026904975529760122,0.0023925555869936943
24621886730,-0.505665957927704,-9.57406902313233,-0.655895352363586,0.00014201560406945646,-0.0033351401798427105,0.0017399786738678813
24628337621,-0.553730010986328,-9.61386108398438,-0.699578523635864,-0.0024196284357458353,-0.003756763180717826,0.0009461849112994969
24640921831,-0.48496401309967,-9.64969158172608,-0.677312135696411,-0.004533427767455578,-0.0038122835103422403,7.258202822413296e-05
24649699211,-0.385034680366516,-9.65436935424805,-0.671884953975678,-0.005594550631940365,-0.00346765061840415,-0.0008811707957647741
24658620119,-0.3486447930336,-9.7643404006958,-0.680579364299774,-0.0055284262634813786,-0.0028691806364804506,-0.0018677287735044956
24668872356,-0.42191469669342,-9.82244110107422,-0.670724868774414,-0.004594685509800911,-0.002229906851425767,-0.0027241120114922523
24678512811,-0.504476130008698,-9.76108646392822,-0.645462155342102,-0.0030634680297225714,-0.001640301663428545,-0.00314629590138793
24689200639,-0.439813733100891,-9.72361087799072,-0.655132353305817,-0.00114919594489038,-0.0010700910352170467,-0.0027958080172538757
24843035459,-0.312354266643524,-9.80047035217285,-0.684586882591248,0.0009102505864575505,-0.00044795701978728175,-0.0015684355748817325
24852458238,-0.320023953914642,-9.80453586578369,-0.683786869049072,0.0027415892109274864,0.0003018888528458774,0.00024438215768896043
24859893798,-0.317502707242966,-9.71341323852539,-0.688243567943573,0.00399286113679409,0.0011805907124653459,0.0020190065260976553
24878532409,-0.326268225908279,-9.61996173858643,-0.675838470458984,0.004710000474005938,0.0020216619595885277,0.003063737414777279
24888075113,-0.325921773910522,-9.65843391418457,-0.664243638515473,0.005159143358469009,0.0024962094612419605,0.0029699383303523064
24899523973,-0.249893397092819,-9.66112422943115,-0.665783762931824,0.0053761848248541355,0.0022654528729617596,0.0017227354692295194
24971564769,-0.162685886025429,-9.66317939758301,-0.598970949649811,0.005351539701223373,0.0012828628532588482,-0.00041501771192997694
24978655576,-0.185076802968979,-9.653395652771,-0.595371544361115,0.005374503787606955,-4.6465793275274336e-05,-0.002916207304224372
25989417552,-0.318700224161148,-9.78772640228272,-0.586283445358276,0.005749886855483055,-0.0012062714667990804,-0.005051587242633104
25998616218,-0.304150968790054,-9.82081031799316,-0.589579820632935,0.006372862495481968,-0.00193837471306324,-0.006198630202561617
26008486747,-0.263603329658508,-9.83563899993897,-0.610060453414917,0.0069117764942348,-0.0021974381525069475,-0.006085426080971956
26029886245,-0.171517997980118,-9.61999607086182,-0.568953633308411,0.007247310597449541,-0.0021188585087656975,-0.004810200072824955
26038570404,-0.193932637572289,-9.51032161712647,-0.549092888832092,0.007465754169970751,-0.0019807193893939257,-0.0027854107320308685
26058643341,-0.270942240953445,-9.58652782440186,-0.57640016078949,0.007579911965876818,-0.0020234144758433104,-0.0006239248323254287
26068390130,-0.290556490421295,-9.64893913269043,-0.600711226463318,0.007477848790585995,-0.0024219152983278036,0.00107776396907866
26080536603,-0.312263756990433,-9.70159244537354,-0.602370798587799,0.007103805895894766,-0.0031935758888721466,0.0020083615090698004
26089028358,-0.282137244939804,-9.77034282684326,-0.669931411743164,0.006627931259572506,-0.004045757930725813,0.0022457665763795376
26138559341,-0.291290134191513,-9.54895782470703,-0.757984042167664,0.006431129761040211,-0.004491419997066259,0.002061348408460617
26172156810,-0.342699557542801,-9.56852245330811,-0.709730684757233,0.006951234769076109,-0.004143577069044113,0.001737365499138832
26178843021,-0.337577164173126,-9.57017612457276,-0.707807183265686,0.008423316292464733,-0.0030521946027874947,0.0015494558028876781
26748003959,-0.323908179998398,-9.86950969696045,-0.488357931375504,0.010439966805279255,-0.0017704835627228022,0.0016020442126318812
26758141040,-0.25068536400795,-9.85900115966797,-0.530467629432678,0.011920279823243618,-0.0009517665603198111,0.0016238447278738022
26768437862,-0.237030670046806,-9.89614677429199,-0.523064494132996,0.012062562629580498,-0.0008149530040100217,0.0011700099566951394
26778198242,-0.200063288211823,-9.86576461791992,-0.526053011417389,0.011162348091602325,-0.0010195053182542324,8.478727977490053e-05
26799068689,-0.20656843483448,-9.69036293029785,-0.479279100894928,0.010123685002326965,-0.0011014580959454179,-0.0012657358311116695
26809255123,-0.231090366840363,-9.70856285095215,-0.514841377735138,0.009583947248756886,-0.0008724635117687285,-0.0021944071631878614
26849761009,-0.17282497882843,-9.6792802810669,-0.477872043848038,0.009677588939666748,-0.00046969650429673493,-0.0021876113023608923
26868486881,-0.208891481161118,-9.76437473297119,-0.432144194841385,0.010221627540886402,-0.0002414080227026716,-0.001253722351975739
27008872270,-0.247499346733093,-9.76142597198487,-0.36525622010231,0.010937048122286797,-0.0004877413157373667,0.00013488333206623793
27019805192,-0.158554241061211,-9.69930171966553,-0.353897541761398,0.01147477887570858,-0.0012143389321863651,0.0013431941624730825
27029318809,-0.205415368080139,-9.7718334197998,-0.387427926063538,0.01153717190027237,-0.0021516894921660423,0.001892417436465621
27168558359,-0.230600267648697,-9.46971321105957,-0.448657661676407,0.011287557892501354,-0.003098029876127839,0.0016197232762351632
27178607940,-0.276128470897675,-9.5486421585083,-0.485541194677353,0.011332106776535511,-0.004142108839005232,0.0006368695176206529
27188018321,-0.35496124625206,-9.69202709197998,-0.516685545444489,0.012087848968803883,-0.005293240770697594,-0.0008039175299927592
27288935184,-0.188250005245209,-9.72115993499756,-0.451396644115448,0.013394158333539963,-0.006124522536993027,-0.0024109319783747196
27302145004,-0.157791450619698,-9.6597375869751,-0.448762565851212,0.014807398431003094,-0.006134746130555868,-0.0039010189939290285
27727899789,-0.575014770030975,-9.79470062255859,-0.537857592105866,0.01607268862426281,-0.005276734009385109,-0.005054473411291838
27748118638,-0.403525084257126,-9.67120742797852,-0.470157027244568,0.017248323187232018,-0.0039689927361905575,-0.005738802719861269
27757156610,-0.40994855761528,-9.62178325653076,-0.349147737026215,0.0184207484126091,-0.002743370132520795,-0.005900966003537178
27769359111,-0.387120962142944,-9.59247303009033,-0.290847986936569,0.019387971609830856,-0.0018446046160534024,-0.005571128334850073
27857110023,-0.341798692941666,-9.63652992248535,-0.437627136707306,0.019850363954901695,-0.0011892628390341997,-0.004801216069608927
27877727031,-0.201435625553131,-9.6253547668457,-0.398444324731827,0.019768010824918747,-0.0008606445044279099,-0.003621260169893503
27902396202,-0.245964035391808,-9.70936584472656,-0.398885071277618,0.01925811544060707,-0.0012857388937845826,-0.0021083413157612085
27911252021,-0.240876764059067,-9.70432567596436,-0.375936985015869,0.01838930882513523,-0.0026400303468108177,-0.00043623329838737845
27917470216,-0.225669637322426,-9.71205043792725,-0.391370564699173,0.01729237660765648,-0.00440225750207901,0.0010485165985301137
27927256345,-0.201418921351433,-9.70692729949951,-0.418813705444336,0.01629767194390297,-0.005665456410497427,0.001866316655650735
27937639713,-0.196975231170654,-9.62316131591797,-0.455610364675522,0.015727819874882698,-0.005804100539535284,0.001793930889107287
27948008060,-0.243928745388985,-9.60023975372315,-0.435780555009842,0.015590593218803406,-0.004832559265196323,0.0010727352928370237
27957727432,-0.24216265976429,-9.67473888397217,-0.496548771858215,0.015687132254242897,-0.0031579071655869484,8.041568798944354e-05
27977780103,-0.293956935405731,-9.87254619598389,-0.500209331512451,0.015913095325231552,-0.0011955987429246306,-0.000980266951955855
27987978219,-0.294278979301453,-9.77577209472656,-0.462723702192307,0.016248608008027077,0.0007016299059614539,-0.002021580236032605
27998333930,-0.317557215690613,-9.72622776031494,-0.414653033018112,0.016591977328062057,0.002219438785687089,-0.002898701699450612
28013183832,-0.336907625198364,-9.83051490783691,-0.401864796876907,0.01675231195986271,0.003109678393229842,-0.0033807987347245216
28018142461,-0.351878941059113,-9.87440299987793,-0.406168639659882,0.01657875068485737,0.0032242697197943926,-0.003297384362667799
28028221845,-0.431654930114746,-9.7775821685791,-0.401150166988373,0.0161405261605978,0.0026581536512821913,-0.002707654144614935
28037820816,-0.500159382820129,-9.71689796447754,-0.384399861097336,0.015814604237675667,0.0018169452669098973,-0.0019470633706077933
28048113822,-0.492157131433487,-9.73776817321777,-0.420349091291428,0.016075940802693367,0.0010439847828820348,-0.0014908669982105494
28057564020,-0.432695209980011,-9.74752330780029,-0.426959991455078,0.017070047557353973,0.00021631216804962605,-0.0015770293539389968
28108556747,-0.278282761573792,-9.697509765625,-0.455695807933807,0.01840643770992756,-0.0009444787865504622,-0.002002650173380971
28128199815,-0.273406505584717,-9.69007205963135,-0.451296836137772,0.019477766007184982,-0.002372218295931816,-0.002460640389472246
28138334989,-0.29732546210289,-9.69511222839355,-0.466035127639771,0.019945837557315826,-0.0037775563541799784,-0.0028294064104557037
29218501806,-0.301680028438568,-9.71103668212891,-0.439464688301086,0.019881216809153557,-0.004866393283009529,-0.003031381405889988
29228373050,-0.306679785251617,-9.72823810577393,-0.445521056652069,0.019537944346666336,-0.005263021681457758,-0.002903083572164178
29254683017,-0.295450538396835,-9.71372985839844,-0.447127312421799,0.01902167685329914,-0.004559236112982035,-0.00236392579972744
29268014669,-0.286382973194122,-9.70626735687256,-0.46416187286377,0.01830805465579033,-0.002568955533206463,-0.001636023516766727
29278717041,-0.286340236663818,-9.70392894744873,-0.460063934326172,0.01759186200797558,0.0003921043826267123,-0.001087851356714964
29288334369,-0.267942667007446,-9.69106864929199,-0.474710822105408,0.017166052013635635,0.003448337083682418,-0.0008869459270499647
29299547195,-0.269198745489121,-9.70828056335449,-0.474549561738968,0.016976313665509224,0.00556763494387269,-0.0010004850337281823
29308495283,-0.278339773416519,-9.70996475219727,-0.476994752883911,0.016795169562101364,0.006102968938648701,-0.0013667579041793942
29317469120,-0.27439096570015,-9.71638679504395,-0.475537687540054,0.01663067564368248,0.00505154998973012,-0.0019550370052456856
29327861785,-0.264645963907242,-9.71164989471436,-0.479144930839539,0.016621986404061317,0.003032875480130315,-0.002789336023852229
29337427854,-0.267719238996506,-9.70118618011475,-0.476552873849869,0.016873331740498543,0.0010093612363561988,-0.0037635820917785168
29347397327,-0.277261823415756,-9.7015323638916,-0.472660273313522,0.01745506376028061,-0.00026026161503978074,-0.004467255435883999
29357306003,-0.281858265399933,-9.69784545898438,-0.46144500374794,0.018304096534848213,-0.0006957729929126799,-0.004583972040563822
29367928504,-0.289842665195465,-9.70357704162598,-0.457461178302765,0.019257640466094017,-0.0007765691843815148,-0.004290646407753229
29377847433,-0.300869733095169,-9.70460224151612,-0.45738086104393,0.020169954746961594,-0.0009947593789547682,-0.003917699214071035
30518085002,-0.302155315876007,-9.71101188659668,-0.46201878786087,0.005200741346925497,-0.0013467405224218965,-0.004719937685877085
30527984619,-0.299145370721817,-9.7174015045166,-0.468949735164642,0.0058363270945847034,-0.0013185094576328993,-0.005370341707020998
30538973569,-0.298637360334396,-9.70019340515137,-0.467313259840012,0.007202089298516512,-0.0022464795038104057,-0.0033346868585795164
30548171520,-0.314434677362442,-9.70931243896484,-0.463116317987442,0.007253467570990324,-0.0028550284914672375,-0.0014709536917507648
30572207212,-0.318034261465073,-9.71336078643799,-0.467479228973389,0.007018578704446554,-0.0032476361375302076,-0.0002197860594606027
30578285694,-0.318965464830399,-9.71335506439209,-0.472556561231613,0.006663066800683737,-0.0031045004725456238,-9.704645344754681e-05
30676883935,-0.312039613723755,-9.71403408050537,-0.464544057846069,0.0026076538488268852,-0.003002398181706667,0.0015901237493380904
30982315301,-0.306389063596726,-9.71977519989014,-0.472061693668365,0.003759614424780011,0.003247508080676198,0.0017625768668949604
30997827291,-0.30548620223999,-9.72383403778076,-0.469520509243011,0.0036491823848336935,0.0008765510865487158,0.001807488384656608
31007901191,-0.308970749378204,-9.70628643035889,-0.4679214656353,0.0032664684113115072,-0.0008666716166771948,0.0021688027773052454
31030478715,-0.315923303365707,-9.72889995574951,-0.468534231185913,0.0018814413342624903,-0.0024174414575099945,0.003283544909209013
31038759469,-0.311891496181488,-9.71066284179688,-0.47496697306633,0.0009354879730381072,-0.0021873938385397196,0.003622128162533045
31048344135,-0.31230965256691,-9.71406078338623,-0.466977298259735,3.6775152693735436e-05,-0.001825318904593587,0.003662721486762166
31058367967,-0.300647586584091,-9.71267700195312,-0.477810442447662,-0.0006566892261616886,-0.0017801253125071526,0.003342631971463561
31078806400,-0.314240604639053,-9.71709632873535,-0.463384807109833,-0.0005060462281107903,-0.0038867893163114786,0.0004029297560919076
31580709457,-0.317773818969727,-9.69919300079346,-0.474891573190689,-0.0019006629008799791,0.00024085977929644287,-0.0005171796074137092
31678644657,-0.318669468164444,-9.70931529998779,-0.471454679965973,-0.001060138805769384,-0.0028231197502464056,0.0001274833339266479
31688268661,-0.316216051578522,-9.70965957641602,-0.467364847660065,-0.0007815842400304973,-0.002924230881035328,0.0021393713541328907
31800699710,-0.308753490447998,-9.70932102203369,-0.464398741722107,0.002207972574979067,0.0004794789419975132,-0.002180625917389989
31858682632,-0.312822878360748,-9.71707820892334,-0.472651273012161,-0.0019262187415733933,-0.002902104752138257,-0.0015665815444663167
31885354042,-0.318893820047379,-9.71539211273194,-0.472716748714447,-0.003579425625503063,-0.00574085209518671,0.004092595539987087
31938751935,-0.323188066482544,-9.71944999694824,-0.462877601385117,0.0010087273549288511,-0.0016416687285527587,0.005829261150211096
31947756767,-0.323405504226685,-9.71472072601319,-0.473198384046555,0.000940004363656044,-0.0031247418373823166,0.004656127654016018
31957775115,-0.31200036406517,-9.71606826782227,-0.467897146940231,-0.00048663027700968087,-0.004897492937743664,0.004039553925395012
32338611125,-0.319665789604187,-9.71438884735108,-0.468417435884476,0.0029220941942185163,-0.00503029627725482,0.0027835769578814507
32957704782,-0.33220848441124,-9.71642398834229,-0.464992314577103,0.003589911386370659,-0.0022650365717709064,0.0024869751650840044
32968944787,-0.324432879686356,-9.71573162078858,-0.476467281579971,0.0026661944575607777,-0.0024945067707449198,0.001912059960886836
32978554964,-0.324017941951752,-9.71437931060791,-0.473337024450302,0.0021076390985399485,-0.002544519491493702,0.0012328341836109757
33030363321,-0.319275915622711,-9.71405029296875,-0.473198801279068,0.006817359011620283,-0.0026526532601565123,-0.001048398669809103
33047894001,-0.322668045759201,-9.7153844833374,-0.481727868318558,0.006678562145680189,-0.0012562720803543925,-0.0002908525348175317
33258291006,-0.331516802310944,-9.71944618225098,-0.475188255310059,0.004490575287491083,-0.0006218619528226554,-0.0020006040576845407
33267866611,-0.32709938287735,-9.70391654968262,-0.474214643239975,0.0030456234235316515,0.00010574502812232822,-0.001469279988668859
33278761863,-0.327520996332169,-9.71674346923828,-0.471596240997314,0.0015813506906852126,0.0006591032142750919,-0.0005430260789580643
33290008306,-0.324045389890671,-9.71202278137207,-0.473526477813721,0.00017764641961548477,0.0007335540722124279,0.000811443489510566
33354265451,-0.328739672899246,-9.71471786499023,-0.479378968477249,-0.006904186215251684,-0.0007663387805223465,0.0020522121340036392
33358131408,-0.336324363946915,-9.71102046966553,-0.472553819417954,-0.006048976443707943,0.0001737284765113145,0.0001959698274731636
33368499517,-0.334673047065735,-9.71743011474609,-0.464642524719238,-0.004388785921037197,0.0010693951044231653,-0.0015338935190811753
33378825664,-0.330071002244949,-9.71642780303955,-0.461874634027481,-0.002206346718594432,0.0014160433784127235,-0.0026301336474716663
33389238595,-0.325540632009506,-9.70761871337891,-0.478076845407486,9.93268913589418e-05,0.0010904584778472781,-0.002773075131699443
33457892417,-0.319732487201691,-9.71402931213379,-0.478734821081162,0.002482278738170862,0.0017204668838530779,0.0029003587551414967
33718363046,-0.343499928712845,-9.69921779632569,-0.462121456861496,-0.0017693816917017102,-0.0026241240557283163,0.0017339563928544521
33727982997,-0.324782431125641,-9.7083044052124,-0.471351951360703,0.00012372669880278409,-0.0036567403003573418,0.0020841804798692465
34098411798,-0.307405412197113,-9.70424747467041,-0.478312194347382,0.0018936072010546923,-0.004208896309137344,0.0016271271742880344
34108772754,-0.32103630900383,-9.71573066711426,-0.472717672586441,0.0012081169988960028,-0.004021098837256432,0.0013415577122941613
34118981122,-0.325946062803268,-9.70964908599854,-0.476948231458664,0.0003016481059603393,-0.0030219214968383312,0.0012851710198447108
34141965389,-0.317549079656601,-9.70997524261475,-0.471507698297501,5.78771359869279e-05,0.002134953159838915,0.002678953344002366
34419139623,-0.315140157938004,-9.72653293609619,-0.463912963867188,0.004227666184306145,0.004380122292786837,0.000362524064257741
34430573940,-0.311915934085846,-9.71100330352783,-0.47263890504837,0.003836825955659151,0.0035759559832513332,-0.0015623167855665088
34560051918,-0.319136679172516,-9.7096529006958,-0.471962153911591,-0.004983733408153057,-0.0031372676603496075,0.0012738155201077461
34610129833,-0.328038305044174,-9.70830059051514,-0.477498829364777,0.007453965023159981,0.0006080624298192561,-0.003034161636605859
34770254850,-0.319241970777512,-9.72349262237549,-0.47219455242157,-0.001424287213012576,-0.003657856024801731,0.0036754535976797342
34778406858,-0.314725697040558,-9.71031951904297,-0.476037323474884,-0.0019315342651680112,-0.0018198497127741575,0.003779544262215495
34818237066,-0.307525545358658,-9.71369743347168,-0.472338438034058,-0.0013013355201110244,0.0001457143807783723,0.0036513369996100664
34873262643,-0.306477904319763,-9.69852256774902,-0.471585005521774,9.643168596085161e-05,0.0017738593742251396,0.00345592456869781
34884438991,-0.316854178905487,-9.71099472045898,-0.472601234912872,0.0016329777427017689,0.0025661506224423647,0.003189042443409562
35168955326,-0.314032226800919,-9.70864200592041,-0.47386708855629,0.0013494975864887238,-0.003553507849574089,0.003079809946939349
35180884599,-0.312913060188293,-9.70729732513428,-0.472531706094742,0.0014230245724320412,-0.003998973406851292,0.0018379947869107127
35192704439,-0.310971468687058,-9.70966053009033,-0.464230358600616,0.0024825988803058863,-0.003509522881358862,-0.0023410075809806585
35328618288,-0.313020884990692,-9.71505641937256,-0.46981954574585,-0.0024081608280539513,0.00039866610313765705,-0.0023481957614421844
35339184522,-0.304862082004547,-9.70999717712402,-0.465202331542969,-0.0023935979697853327,-0.00012519341544248164,-0.000952678092289716
35348363161,-0.310922026634216,-9.70932197570801,-0.472829341888428,-0.001722790882922709,-0.0002557171101216227,0.00045538810081779957
35498206377,-0.310243040323258,-9.72180080413819,-0.470286667346954,0.0019997397903352976,0.0017039628000929952,-0.0008942566346377134
35508342266,-0.313612699508667,-9.71167659759522,-0.473231017589569,0.0034174397587776184,0.0015237681800499558,-0.0005754036246798933
35518558263,-0.306122779846191,-9.70662212371826,-0.464989930391312,0.0046677300706505775,0.0010356811108067632,0.0002509554324205965
35707952022,-0.320243149995804,-9.71743106842041,-0.459446251392365,0.0032910630106925964,-0.0010063786758109927,0.0008859019726514816
35936648368,-0.30657559633255,-9.72551250457764,-0.469068586826324,0.003810156835243106,-7.491663563996553e-05,-0.0019004752393811941
35942159414,-0.313806354999542,-9.71371269226074,-0.468536734580994,0.005726609844714403,-0.0015643252991139889,-0.0014725385699421167
35973693847,-0.306396722793579,-9.7076473236084,-0.456811845302582,0.006147675681859255,-0.0036618539597839117,-0.000740337185561657
35980985164,-0.310304075479508,-9.71269607543945,-0.473314851522446,0.004806727636605501,-0.005674551706761122,-0.0002734446316026151
36288554191,-0.319739609956741,-9.70526504516602,-0.474280387163162,0.1038793995976448,0.012682164087891579,0.008316117338836193
36298594713,-0.313734918832779,-9.71606159210205,-0.474248826503754,0.10649296641349792,0.001225649262778461,0.007768766023218632
36309972047,-0.318609595298767,-9.7153959274292,-0.467920154333115,0.11020975559949875,-0.01747043803334236,0.0009601141209714115
36389197349,-0.320336669683456,-9.70930862426758,-0.477305710315704,0.08326864242553711,0.011183607392013073,0.032769862562417984
36438677072,-0.317360907793045,-9.72148227691651,-0.461073279380798,0.1065274178981781,0.0027553795371204615,0.04150315001606941
36518151998,-0.320335149765015,-9.70966339111328,-0.46862205862999,0.162140354514122,-0.023866042494773865,-0.012604372575879097
36528891324,-0.327054917812347,-9.70965957641602,-0.4707091152668,0.14854548871517181,-0.031684257090091705,-0.007043859455734491
36537800788,-0.327904582023621,-9.72889995574951,-0.472409963607788,0.12797091901302338,-0.0348394401371479,0.0016237926902249455
36547804594,-0.314531207084656,-9.70526599884033,-0.474061995744705,0.10240714997053146,-0.03436560183763504,0.009675591252744198
36597209215,-0.32830947637558,-9.71236515045166,-0.472214818000793,0.007764014881104231,-0.01678641326725483,-0.00041467027040198445
36607300281,-0.323743999004364,-9.71574306488037,-0.468394249677658,0.005210032686591148,-0.01549147255718708,-0.004746002610772848
36997047185,-0.321442395448685,-9.72451210021973,-0.465151339769363,-0.11603992432355881,0.013584403321146965,-0.03903324902057648
37448080539,-0.321701616048813,-9.7157154083252,-0.475679069757462,0.029538922011852264,-0.05873776227235794,-0.024442443624138832
37457963466,-0.315012902021408,-9.70930576324463,-0.480039417743683,0.027601994574069977,-0.054698310792446136,-0.022494453936815262
37467739820,-0.328574508428574,-9.70290374755859,-0.470553696155548,0.0265128742903471,-0.0537419393658638,-0.02262132428586483
37547942876,-0.317635506391525,-9.70390796661377,-0.473983079195023,0.06225893646478653,0.036702245473861694,-0.03429451584815979
37557798624,-0.319099694490433,-9.71099948883057,-0.471032798290253,0.06451165676116943,0.01640823297202587,-0.028228387236595154
37707757234,-0.310344278812408,-9.71843338012695,-0.468843936920166,-0.023178555071353912,0.08079367876052856,0.024895954877138138
37967765331,-0.324920326471329,-9.71000003814697,-0.464839577674866,-0.06522437930107117,0.054994307458400726,-0.04670824483036995
37979605197,-0.323093682527542,-9.70259189605713,-0.459238559007645,-0.046339768916368484,0.054804518818855286,-0.0366353802382946
37988694667,-0.316208004951477,-9.71202373504639,-0.467964172363281,-0.02087242715060711,0.05279486998915672,-0.022981103509664536
38008425474,-0.322724372148514,-9.71742725372315,-0.471513450145721,0.0072448900900781155,0.04074528440833092,-0.0136865871027112
38027920246,-0.314236164093018,-9.71336555480957,-0.474679738283157,0.03448522835969925,0.014653550460934639,-0.01685214415192604
38309729337,-0.313874065876007,-9.72146511077881,-0.475023090839386,-0.03200848773121834,-0.0761551633477211,-0.07356727123260498
38328135490,-0.312543302774429,-9.7147274017334,-0.466117203235626,-0.03428460285067558,-0.069902703166008,-0.06468623876571655
38338044404,-0.317565083503723,-9.7103328704834,-0.470935136079788,-0.03412295877933502,-0.06806373596191406,-0.052646804600954056
38348121404,-0.317030757665634,-9.71067428588867,-0.473118394613266,-0.034194596111774445,-0.06524265557527542,-0.03765299171209335
38358209609,-0.314377754926682,-9.71572399139404,-0.473609060049057,-0.035146791487932205,-0.056142594665288925,-0.021980145946145058
38678509712,-0.315530568361282,-9.71538734436035,-0.471231698989868,-0.003169397125020623,0.043391961604356766,-0.01264676358550787
38870321989,-0.322703540325165,-9.72351360321045,-0.464695781469345,0.016316039487719536,0.005669889505952597,0.03749716281890869
38880595445,-0.318710654973984,-9.70865440368652,-0.466745615005493,0.011059832759201527,0.009894464164972305,0.03567695617675781
38887797594,-0.326820611953735,-9.71337509155273,-0.470856338739395,0.00598462950438261,0.014999325387179852,0.031023818999528885
38933438301,-0.323489755392075,-9.71743297576904,-0.469702005386353,-0.002884559566155076,-0.004659953527152538,0.007321239449083805
38963575601,-0.311531096696854,-9.71674728393555,-0.461843252182007,-0.0017001429805532098,-0.01584475301206112,0.003039573784917593
39040990352,-0.320493549108505,-9.70864200592041,-0.47017565369606,0.01552560180425644,-0.00805539172142744,-0.005338531918823719
39049389839,-0.313868492841721,-9.71607971191406,-0.467543125152588,0.008670665323734283,-0.014911409467458725,-0.00912549439817667
39078233957,-0.309473216533661,-9.7140417098999,-0.472319215536118,-0.0028397678397595882,-0.00799831748008728,-0.009092964231967926
39101577520,-0.31540110707283,-9.7072868347168,-0.473612070083618,-0.010786009952425957,-0.005046841222792864,-0.01149494294077158
39558207035,-0.313888639211655,-9.71404647827148,-0.472513765096664,0.07408485561609268,-0.03352603316307068,-0.001050241175107658
39567690372,-0.310806900262833,-9.71607685089112,-0.465945810079575,0.11275536566972733,-0.04372246190905571,0.004272419959306717
39577805519,-0.311299115419388,-9.70731258392334,-0.46427059173584,0.14500953257083893,-0.04217950627207756,-0.004853011108934879
39657959222,-0.310205847024918,-9.72348785400391,-0.471001863479614,0.009572703391313553,-0.05667906999588013,-0.10271645337343216
39672199964,-0.318683534860611,-9.69919013977051,-0.472238093614578,-0.026466088369488716,-0.03706926107406616,-0.07395733147859573
39678392648,-0.308216750621796,-9.708984375,-0.471190094947815,-0.053073249757289886,0.0014492198824882507,-0.038210850208997726
39749421119,-0.3148612678051,-9.7106819152832,-0.467033118009567,-0.0854216143488884,0.06997944414615631,0.005218913313001394
39779380798,-0.315524041652679,-9.7147274017334,-0.470464020967484,-0.08810516446828842,0.07656191289424896,0.0037804991006851196
39789825916,-0.313570410013199,-9.71269416809082,-0.473514288663864,-0.0745512843132019,0.06832291185855865,-0.003159192856401205
39807876348,-0.322333037853241,-9.70832443237305,-0.462344020605087,-0.045790210366249084,0.052172958850860596,-0.00542770279571414
39977421045,-0.325340449810028,-9.71708202362061,-0.470875024795532,0.12369909137487411,0.08619100600481033,-0.07297623157501221
40347784280,-0.30572497844696,-9.7261791229248,-0.470809280872345,0.051622360944747925,0.00801148358732462,0.007157179061323404
40381868362,-0.316385388374329,-9.71707630157471,-0.470014721155167,0.09054576605558395,0.019154977053403854,-0.032497990876436234
40497986316,-0.304477453231812,-9.71978759765625,-0.462564915418625,-0.006542952731251717,-0.032830510288476944,0.050353582948446274
40787963867,-0.297226756811142,-9.7035722732544,-0.473738938570023,0.061197809875011444,-0.010982802137732506,0.0035388502292335033
40830133914,-0.31446036696434,-9.71709060668945,-0.469155371189117,-0.01632576435804367,0.04300922155380249,0.0737306997179985
40840954303,-0.310616463422775,-9.71034049987793,-0.471576482057571,-0.027859628200531006,0.05616188049316406,0.08599082380533218
40847801208,-0.303498506546021,-9.71166801452637,-0.474430799484253,-0.031983233988285065,0.06587067991495132,0.08570467680692673
41020370006,-0.308129817247391,-9.70524883270264,-0.483280181884766,-0.04336198791861534,-0.03469286859035492,0.05827397108078003
41027713537,-0.306663423776627,-9.71506404876709,-0.473871409893036,-0.03536653146147728,-0.023658016696572304,0.05530691519379616
41039232969,-0.302836149930954,-9.72045516967773,-0.466351211071014,-0.025544146075844765,-0.01686721108853817,0.05205892398953438
41047955513,-0.306848376989365,-9.70154666900635,-0.480693429708481,-0.01640596054494381,-0.01909184642136097,0.0477987639605999
41157621145,-0.301787078380585,-9.70390892028809,-0.480615526437759,-0.017476879060268402,0.008581249974668026,0.012482664547860622
41440281152,-0.31614825129509,-9.71876049041748,-0.470294296741486,-0.011706620454788208,0.006589946337044239,0.023326892405748367
41448501586,-0.30743145942688,-9.711669921875,-0.478547811508179,-0.0008688743109814823,0.006165819242596626,0.01925353892147541
41539184331,-0.309010893106461,-9.71808910369873,-0.470586806535721,0.03744212165474892,-0.0019579872023314238,-0.009986057877540588
41547454595,-0.320477306842804,-9.70864295959473,-0.472990751266479,0.03027038834989071,-0.0032718142028898,-0.006178512703627348
42011039018,-0.311622262001038,-9.72348308563233,-0.476981341838837,0.04157423600554466,-0.011801494285464287,0.010343405418097973
42017860412,-0.310458779335022,-9.7059440612793,-0.47489121556282,0.0440044030547142,-0.023747464641928673,0.012342994101345539
42057704925,-0.311689883470535,-9.72418594360352,-0.465462177991867,0.04755381494760513,-0.03818928450345993,0.012605317868292332
42158865213,-0.31230166554451,-9.7096529006958,-0.478553533554077,0.0919002965092659,-0.033337853848934174,0.02756592445075512
42168363094,-0.312960386276245,-9.7180814743042,-0.479710161685944,0.08814729005098343,-0.039161909371614456,0.023289842531085014
42237830400,-0.279811561107635,-9.72342014312744,-0.530840992927551,0.032011959701776505,-0.02259008400142193,0.007586783729493618
42258547306,-0.274885445833206,-9.67751407623291,-0.535614550113678,0.019100666046142578,-0.013300674967467785,0.016138385981321335
42496051073,-0.293380826711655,-9.71259689331055,-0.531382083892822,-0.05879823863506317,0.07644737511873245,-0.1546878069639206
42708335638,-0.363707005977631,-9.71297836303711,-0.515018224716187,0.03196525573730469,0.03935609385371208,-0.093694306910038
42719823837,-0.356117755174637,-9.72346115112305,-0.505709886550903,0.025892121717333794,0.07308978587388992,-0.08708536624908447
42899779081,-0.354003101587296,-9.7251787185669,-0.486457496881485,0.05400492250919342,-0.02916671335697174,-0.08311164379119873
42910064458,-0.345571786165237,-9.72415447235108,-0.487641841173172,0.05266425758600235,0.00675610126927495,-0.08690645545721054
42948921203,-0.357766658067703,-9.70830535888672,-0.483815521001816,0.02776271291077137,0.0032520757522433996,-0.06174149364233017
42968422412,-0.343574494123459,-9.70122528076172,-0.475950062274933,-0.002427392639219761,-0.03323153406381607,-0.030958887189626694
43237602233,-0.341444343328476,-9.70457172393799,-0.515965878963471,0.05648823827505112,0.0005351901054382324,-0.022357439622282982
43248140811,-0.343604981899261,-9.70961856842041,-0.519106149673462,0.06965412199497223,-0.009720610454678535,-0.046204932034015656
43257819175,-0.345723211765289,-9.70251274108887,-0.527976214885712,0.07635319977998734,-0.02054443210363388,-0.0777086466550827
43388333797,-0.339627206325531,-9.68837547302246,-0.493463695049286,0.018099751323461533,-0.006159686017781496,-0.004784721415489912
43398725509,-0.349432468414307,-9.69344711303711,-0.487365961074829,0.01291425060480833,0.012475579977035522,-0.021381855010986328
44267992734,-0.316299110651016,-9.71402072906494,-0.486568599939346,0.12407729029655457,-0.05047902092337608,-0.042321737855672836
44297890186,-0.316708415746689,-9.72280406951904,-0.485477447509766,0.1013893112540245,-0.03540214151144028,-0.13773758709430695
44309178590,-0.321892708539963,-9.72584056854248,-0.478089272975922,0.0828259065747261,-0.04076914116740227,-0.16535444557666779
44318990468,-0.319109290838242,-9.72921562194824,-0.484775245189667,0.067084401845932,-0.047597162425518036,-0.18473652005195618
44378168821,-0.313154995441437,-9.71973896026612,-0.506892263889313,-0.004257568623870611,0.07709623873233795,-0.13006804883480072
44567998647,-0.325500696897507,-9.71839904785156,-0.512617826461792,-0.08047781884670258,0.0659937709569931,-0.2107347697019577
44738559484,-0.355052381753922,-9.69992351531983,-0.450963288545609,-0.07092372328042984,-0.02358447015285492,-0.17853763699531555
44759101390,-0.366875261068344,-9.73503684997559,-0.434038549661636,-0.05887908861041069,0.0037676626816391945,-0.1829383224248886
45050744056,-0.327437192201614,-9.71234035491944,-0.490590125322342,0.11338888108730316,-0.03804118558764458,-0.1516321748495102
45113878250,-0.303302347660065,-9.67144775390625,-0.532522261142731,0.10943543165922165,0.06348499655723572,-0.05829812213778496
45202682733,-0.322199374437332,-9.64008522033691,-0.464576661586761,0.12757712602615356,0.13756465911865234,-0.25536414980888367
45381947994,-0.227519288659096,-9.74740219116211,-0.463317811489105,0.027424512431025505,-0.07897190749645233,0.009512098506093025
45487942695,-0.289008915424347,-9.72923278808594,-0.426510661840439,-0.025366749614477158,-0.07632120698690414,-0.07181460410356522
45493625402,-0.295233935117722,-9.70964527130127,-0.424948006868362,-0.04046158120036125,-0.12727202475070953,-0.08984716981649399
45506732702,-0.280952304601669,-9.75754451751709,-0.443468242883682,-0.05463715270161629,-0.14087122678756714,-0.10170688480138779
45557695150,-0.342307269573212,-9.80129528045654,-0.580977439880371,-0.10565946251153946,0.16340914368629456,-0.0270925834774971
45568066120,-0.39381742477417,-9.86339092254639,-0.623118340969086,-0.10089030861854553,0.1657261848449707,-0.01602896861732006
45638695478,-0.38129073381424,-9.87079906463623,-0.644459962844849,-0.24913054704666138,-0.015116382390260696,0.09081724286079407
45867951154,-0.191837415099144,-9.76062488555908,-0.490974903106689,-0.021617311984300613,-0.06850726157426834,-0.14025507867336273
45877867698,-0.201464608311653,-9.71169090270996,-0.498654305934906,-0.027677729725837708,-0.0896700993180275,-0.13130705058574677
45940312623,-0.341573417186737,-9.72882175445557,-0.627903640270233,-0.025469403713941574,-0.09501026570796967,-0.030789105221629143
45954282999,-0.356983333826065,-9.78286457061768,-0.589605629444122,0.0016034489963203669,-0.1285264939069748,-0.026524970307946205
45957860708,-0.467192769050598,-9.70265102386475,-0.520590543746948,0.019697079434990883,-0.14838427305221558,-0.025408143177628517
46354012250,-0.311292558908463,-9.69542598724365,-0.469929546117783,-0.043848998844623566,-0.06777019053697586,0.034557756036520004
46362876176,-0.293762236833572,-9.6896800994873,-0.458538591861725,-0.018917977809906006,-0.06442195177078247,0.01514524593949318
46367189407,-0.285105347633362,-9.65325355529785,-0.444690883159637,0.007774624042212963,-0.045567162334918976,-0.01529646199196577
46378316640,-0.298602551221848,-9.65798759460449,-0.437530696392059,0.034761812537908554,-0.014964885078370571,-0.054385408759117126
46387715816,-0.331987917423248,-9.72245407104492,-0.43179988861084,0.057371415197849274,0.0167562086135149,-0.09932200610637665
46397838115,-0.354483991861343,-9.79807949066162,-0.421103090047836,0.07151801884174347,0.039559949189424515,-0.14555387198925018
46418069362,-0.325857549905777,-9.75223731994629,-0.385637283325195,0.07472411543130875,0.04965592548251152,-0.1854328215122223
46472730398,-0.244191467761993,-9.69987201690674,-0.404571920633316,-0.05618540942668915,0.12181146442890167,-0.06022772192955017
47047969818,-0.331307798624039,-9.68906879425049,-0.530807733535767,0.08062351495027542,-0.010597039014101028,0.11324968189001083
47298005580,-0.329656541347504,-9.69524574279785,-0.485255628824234,0.07197346538305283,-0.08515018969774246,0.047829896211624146
47308666229,-0.333475023508072,-9.6976261138916,-0.478410363197327,0.1375109702348709,-0.026916801929473877,0.04335165396332741
47317880868,-0.343786925077438,-9.71315765380859,-0.47043976187706,0.15558263659477234,0.0018230648711323738,0.0339839793741703
47327990055,-0.343724250793457,-9.73439693450928,-0.487034261226654,0.16175352036952972,0.02202022261917591,0.02281639352440834
47339192390,-0.343194961547852,-9.74554252624512,-0.475604474544525,0.15612319111824036,0.029865384101867676,0.011410417035222054
47348828315,-0.344593852758408,-9.73677825927734,-0.470608621835709,0.1410059928894043,0.025984996929764748,0.0006224673124961555
47358134031,-0.33113557100296,-9.72395706176758,-0.46655535697937,0.12073397636413574,0.014000973664224148,-0.009322208352386951
47382225513,-0.336050242185593,-9.69122314453125,-0.463846057653427,0.081313855946064,-0.015665346756577492,-0.02560827136039734
47389647483,-0.331667333841324,-9.69117736816406,-0.484314471483231,0.0656752735376358,-0.023603912442922592,-0.03055998496711254
47397900819,-0.335600614547729,-9.71546363830566,-0.493637412786484,0.05197544023394585,-0.02131977677345276,-0.03229337930679321
48138162374,-0.341276675462723,-9.77976608276367,-0.55123895406723,-0.02302117459475994,0.0404549315571785,0.015705695375800133
48200043439,-0.439498484134674,-9.72087192535401,-0.443631738424301,0.053352758288383484,0.0341833159327507,-0.00888991728425026
48209989786,-0.41010108590126,-9.71274089813233,-0.466156184673309,0.036476146429777145,0.025154834613204002,-0.008170172572135925
48290563106,-0.252845197916031,-9.67100524902344,-0.564510881900787,-0.03189043328166008,-0.01529378816485405,0.06812881678342819
48608805894,-0.285445004701614,-9.76994514465332,-0.533849775791168,0.058273885399103165,-0.01687326468527317,0.006480359937995672
48618419408,-0.290640413761139,-9.74972820281983,-0.520093619823456,0.029720548540353775,-0.029883019626140594,0.01689588651061058
48708486795,-0.296633511781693,-9.77163505554199,-0.540960550308228,-0.03630586713552475,-0.029079165309667587,0.02388041280210018
48878046274,-0.308889985084534,-9.72575664520264,-0.542982697486877,-0.011416599154472351,-0.024577409029006958,0.046342600136995316
48888802766,-0.318620473146439,-9.72709465026855,-0.552309572696686,-0.0024520722217857838,-0.02206466719508171,0.03733085095882416
48897786617,-0.336138427257538,-9.74633598327637,-0.557844996452332,0.008668409660458565,-0.018088053911924362,0.025885162875056267
48911046028,-0.343973994255066,-9.75480270385742,-0.549572944641113,0.020623011514544487,-0.012575837783515453,0.014113208279013634
49219653606,-0.350427120923996,-9.67064762115479,-0.465837806463242,0.022958578541874886,0.005938028916716576,0.017987597733736038
49228040456,-0.344078987836838,-9.68179416656494,-0.463871240615845,0.01820770651102066,0.0034806253388524055,0.02418450079858303
49237275838,-0.338982284069061,-9.68884754180908,-0.47949081659317,0.01616954617202282,-3.9879912947071716e-05,0.028621133416891098
49323549032,-0.33749783039093,-9.64564990997315,-0.482739090919495,0.04882102832198143,0.008343043737113476,0.003342692507430911
49329624414,-0.319047957658768,-9.65305233001709,-0.487459123134613,0.052966419607400894,0.008878985419869423,-0.0008691039984114468
49387845516,-0.356670320034027,-9.69421482086182,-0.509490847587585,0.05145309865474701,0.006043101195245981,0.0010507311671972275
49481265544,-0.322129964828491,-9.69083499908447,-0.494779825210571,0.024940313771367073,0.0012494322145357728,0.013786780647933483
49487908601,-0.318617701530457,-9.66215038299561,-0.48925456404686,0.028278561308979988,0.006154539529234171,0.013864242471754551
49657746791,-0.318608343601227,-9.72052097320557,-0.51370507478714,0.013576491735875607,-0.003412532387301326,0.014453364536166191
49737219572,-0.358013182878494,-9.73299884796143,-0.540070474147797,0.036996643990278244,0.0018295446643605828,0.0003579195763450116
49990055799,-0.363411456346512,-9.70874881744385,-0.520161032676697,0.016810692846775055,-0.005857919808477163,0.0021403697319328785
50087994813,-0.322961091995239,-9.71821117401123,-0.485120534896851,0.018301689997315407,-0.003272625617682934,0.006940114311873913
50097696304,-0.317354619503021,-9.71685314178467,-0.487842321395874,0.021085049957036972,-0.0034720099065452814,0.005763617809861898
50118015050,-0.32623553276062,-9.71515369415283,-0.499227821826935,0.028505314141511917,-0.00431433180347085,0.0049839923158288
50167412757,-0.321362733840942,-9.74146842956543,-0.509889900684357,0.028610466048121452,-0.002402258338406682,0.005381929688155651
50367082595,-0.289534479379654,-9.73744201660156,-0.472239553928375,0.0194596778601408,0.00032800203189253807,0.00577468192204833
50378253698,-0.286961406469345,-9.74081897735596,-0.468231409788132,0.019604694098234177,-0.0003512416733428836,0.007555422838777304
50717096805,-0.291560083627701,-9.71755504608154,-0.447742402553558,0.017828533425927162,-0.0004127193824388087,0.005043672397732735
50727205514,-0.301989287137985,-9.71384525299072,-0.450701326131821,0.017488494515419006,-0.0012909019133076072,0.004338931292295456
50738327980,-0.318220347166061,-9.70913410186768,-0.451392829418182,0.01695437729358673,-0.0018153319833800197,0.004129054490476847
50747823238,-0.320881962776184,-9.7135181427002,-0.447790384292603,0.01639610342681408,-0.0021030085626989603,0.0044860197231173515
50757633209,-0.316157817840576,-9.71656227111816,-0.445402890443802,0.01576266624033451,-0.0021854834631085396,0.005250988528132439
50767448663,-0.304790526628494,-9.71081161499023,-0.453488767147064,0.01489483006298542,-0.002028990536928177,0.006092727649956942
51137792825,-0.352890640497208,-9.72623538970947,-0.423191994428635,0.01587403379380703,-0.00319004338234663,0.0030298822093755007
51149465799,-0.37187534570694,-9.7299280166626,-0.441636234521866,0.014169765636324883,-0.0029319236055016518,0.0026842625811696053
51338641643,-0.346786350011826,-9.7353515625,-0.43882828950882,0.007810617797076702,-0.0025121194776147604,0.00328659825026989
51350806236,-0.335938215255737,-9.74039554595947,-0.449103772640228,0.0077715590596199036,-0.002391162561252713,0.0037436126731336117
51387656211,-0.311676144599915,-9.70528316497803,-0.461840987205505,0.008285367861390114,-0.001457574195228517,0.002512985374778509
51397511482,-0.296152889728546,-9.7076473236084,-0.462137758731842,0.008794747292995453,-0.001037147711031139,0.0011124374577775598
51407915592,-0.295704185962677,-9.71538734436035,-0.469617873430252,0.009340016171336174,-0.0006992160342633724,-0.00011878551595145836
51461569547,-0.295891612768173,-9.7147102355957,-0.473744690418243,0.010630733333528042,0.003608125261962414,0.006386543624103069
51467671632,-0.292613118886948,-9.71099662780762,-0.468016594648361,0.011105796322226524,0.00485391216352582,0.006128959823399782
52139769315,-0.328870475292206,-9.71519374847412,-0.448007524013519,0.00956615712493658,-0.005410173907876015,0.004108797293156385
52147057533,-0.326995193958282,-9.71114921569824,-0.452972263097763,0.008886178024113178,-0.004067667759954929,0.00416835630312562
52157885551,-0.327517688274384,-9.70404624938965,-0.455229878425598,0.007984867319464684,-0.0021048577036708593,0.0037938328459858894
52168000221,-0.315365314483643,-9.70065498352051,-0.454819947481155,0.0068319146521389484,-0.000457786547485739,0.002911357441917062
52317655801,-0.335805743932724,-9.72058582305908,-0.459086537361145,0.008668571710586548,-0.0007221383857540786,0.0019823138136416674
52327550172,-0.335412383079529,-9.71855926513672,-0.452847510576248,0.009042453020811081,-0.0015221693320199847,0.0021945142652839422
52830261945,-0.321885675191879,-9.71789073944092,-0.464130431413651,0.0045131780207157135,0.0027465354651212692,0.0037103830836713314
52838360071,-0.330064624547958,-9.72161674499512,-0.464831799268723,0.0037868672516196966,0.0024543111212551594,0.005251319147646427
52848590373,-0.323569625616074,-9.71249389648438,-0.465401738882065,0.00411628931760788,0.0017771095735952258,0.00638688076287508
52860995531,-0.322235584259033,-9.71586227416992,-0.460753917694092,0.005388468503952026,0.0010677177924662828,0.006570595782250166
52868601560,-0.323298662900925,-9.71688747406006,-0.46417498588562,0.00680317310616374,0.0006104143103584647,0.005898825824260712
52878593444,-0.32609361410141,-9.70843029022217,-0.468870341777802,0.007372831925749779,0.0005216095014475286,0.004854386206716299
52887846231,-0.329758763313293,-9.70810985565186,-0.465867519378662,0.006554695311933756,0.0009076007409021258,0.003810240887105465
52927528619,-0.320949554443359,-9.71047019958496,-0.466314017772675,0.0012814990477636456,0.002377281663939357,0.0009330531465820968
