Timestamp,IMU_Raw_x,IMU_Raw_y,IMU_Raw_z,IMU_Linear_Acc_X,IMU_Linear_Acc_Y,IMU_Linear_Acc_Z
1042764663,-0.34066966176033,-9.71068477630615,-0.464109420776367,-0.008076883852481842,-0.006769760511815548,0.006649801507592201
1047842741,-0.335620045661926,-9.71674823760987,-0.472100347280502,-0.01251147873699665,-0.009790228679776192,0.009545860812067986
1120615482,-0.311138302087784,-9.70660591125488,-0.479790836572647,-0.017076989635825157,-0.005262809339910746,0.002804911695420742
1125930309,-0.310232698917389,-9.70358371734619,-0.476234644651413,-0.01301125530153513,-0.005264015402644873,-0.00032375400769524276
1137152910,-0.320741236209869,-9.69987678527832,-0.471516042947769,-0.009445669129490852,-0.004932059906423092,-0.0023868181742727757
1148220539,-0.317278534173966,-9.70593452453613,-0.48302561044693,-0.006625405978411436,-0.003682328388094902,-0.0028178293723613024
1237579822,-0.320311337709427,-9.7184476852417,-0.467814832925797,-0.01226111687719822,-0.007548484019935131,0.0028319850098341703
1348107337,-0.312909632921219,-9.70424461364746,-0.488100200891495,0.001936051296070218,-0.0038685211911797523,-0.009017114527523518
1536758184,-0.307106137275696,-9.71673393249512,-0.482474535703659,0.006358891259878874,-0.01134165097028017,0.006909721996635199
1548107147,-0.308264225721359,-9.70423698425293,-0.492710888385773,0.011144415475428104,-0.009386918507516384,0.0032913130708038807
1571613311,-0.317917615175247,-9.70829391479492,-0.48192772269249,0.013102351687848568,-0.0038354715798050165,-0.0032436803448945284
1575862646,-0.324150562286377,-9.70594596862793,-0.477426171302795,0.010604871436953545,-0.0013117382768541574,-0.004927017726004124
1588007688,-0.332536160945892,-9.71911811828613,-0.473457306623459,0.0065003735944628716,0.0004516568733379245,-0.005026126746088266
1598248720,-0.314972132444382,-9.70765590667725,-0.462924689054489,0.0012709309812635183,0.0011341831414029002,-0.003548522712662816
1614755153,-0.321144193410873,-9.7160816192627,-0.46613934636116,-0.004312949255108833,0.0006321907276287675,-0.0006777887465432286
1620291948,-0.318245679140091,-9.7069787979126,-0.464598000049591,-0.009092654101550579,-0.0007795024430379272,0.0032647754997015
1631626129,-0.324474781751633,-9.71675205230713,-0.472738862037659,-0.012097695842385292,-0.002531246980652213,0.007660653442144394
1636958837,-0.318420588970184,-9.7126989364624,-0.475488781929016,-0.013108702376484871,-0.0040855626575648785,0.011567517183721066
1648524522,-0.316519737243652,-9.71167850494385,-0.478939563035965,-0.01257349643856287,-0.005174565128982067,0.013981916010379791
1659346818,-0.316520750522614,-9.71032047271729,-0.474344432353973,-0.011133859865367413,-0.00574240367859602,0.014286168850958347
1670031070,-0.309609472751617,-9.71875381469727,-0.479817032814026,-0.009289146400988102,-0.005832882132381201,0.012586992233991623
1682016849,-0.294295787811279,-9.71673107147217,-0.479212760925293,-0.0072223651222884655,-0.005665016360580921,0.009621510282158852
1686936616,-0.3088239133358,-9.7143726348877,-0.48008194565773,-0.004741066601127386,-0.005615282338112593,0.006316198967397213
1698106527,-0.297633707523346,-9.71335601806641,-0.485792100429535,-0.0016180425882339478,-0.0059221237897872925,0.003386968746781349
1709193229,-0.284933298826218,-9.70861721038819,-0.488955348730087,0.002059946535155177,-0.006461181212216616,0.001120020286180079
1748259782,-0.297365427017212,-9.71304035186768,-0.46711590886116,0.016646210104227066,-0.00702132610604167,-0.003046805039048195
1917543411,-0.299235433340073,-9.71504783630371,-0.478774130344391,-0.00012145647633587942,-0.004923507105559111,-0.0004424619837664068
1927357912,-0.308564364910126,-9.72010612487793,-0.479889184236527,0.0026139181572943926,-0.005595546215772629,-0.00030436579254455864
1938461303,-0.295859754085541,-9.71199607849121,-0.486596494913101,0.004891734104603529,-0.007276027929037809,-0.0003619226044975221
1949555158,-0.308769673109055,-9.71876525878906,-0.481296926736832,0.00656190374866128,-0.009175959043204784,-0.0005954716471023858
1983069181,-0.302827000617981,-9.7106409072876,-0.487334340810776,0.007271955255419016,-0.01173062901943922,-0.0014660577289760113
1999659776,-0.312164068222046,-9.72145462036133,-0.482900202274323,0.005667056422680616,-0.011781907640397549,-0.0015044971369206905
2009359836,-0.319029092788696,-9.71944046020508,-0.481340855360031,0.0036180312745273113,-0.011481184512376785,-0.0016054852167144418
2018915653,-0.315094888210297,-9.72012710571289,-0.474775165319443,0.0015781756956130266,-0.0109810596331954,-0.0017991462955251336
2027237415,-0.303047984838486,-9.70796012878418,-0.484114706516266,-0.00025044826907105744,-0.010547123849391937,-0.0018467367626726627
2055849552,-0.309227049350739,-9.7197790145874,-0.478251844644547,-0.0016065237578004599,-0.008727076463401318,-0.0003740823012776673
2066297292,-0.311363011598587,-9.70999717712402,-0.478175461292267,-0.0005311666172929108,-0.007319193799048662,-0.00018771456961985677
2077707290,-0.310255765914917,-9.70019817352295,-0.477693408727646,0.0006569193792529404,-0.005735800135880709,-0.00026922504184767604
2094238042,-0.308551669120789,-9.71370124816895,-0.478008210659027,0.002028791233897209,-0.0026573012582957745,-6.436954572563991e-05
2127450704,-0.315924137830734,-9.70795917510987,-0.484432280063629,0.0022737120743840933,-0.0005499622784554958,0.0015133674023672938
2138569593,-0.313539624214172,-9.70559597015381,-0.48542645573616,0.0019757351838052273,-0.0013415763387456536,0.002005621325224638
2149610519,-0.312140434980393,-9.71942615509033,-0.487808376550674,0.001144185196608305,-0.002482961630448699,0.002008343581110239
2160992383,-0.316086888313293,-9.71944427490234,-0.477729827165604,-0.0001038161717588082,-0.0035526223946362734,0.0012410283088684082
2171846866,-0.316986352205277,-9.73024559020996,-0.474195092916489,-0.0014447562862187624,-0.004626052919775248,-9.276464697904885e-05
2199682712,-0.314371407032013,-9.7096529006958,-0.479972004890442,-0.00475945184007287,-0.010448089800775051,-0.0019460240146145225
2210785150,-0.312609672546387,-9.71741199493408,-0.480651915073395,-0.005641594063490629,-0.01186065748333931,-0.001835375209338963
2223554849,-0.327699422836304,-9.71402740478516,-0.483441352844238,-0.006194917485117912,-0.011965293437242508,-0.0017506451113149524
2233002424,-0.307882487773895,-9.71438598632812,-0.475201904773712,-0.006378909107297659,-0.01090053841471672,-0.0016320077702403069
2238546133,-0.316865026950836,-9.70288562774658,-0.49104630947113,-0.00631296169012785,-0.009184745140373707,-0.0013974037719890475
2249947786,-0.313956707715988,-9.71202659606934,-0.477623522281647,-0.006017598323523998,-0.0072333235293626785,-0.0011070116888731718
2260791540,-0.321497619152069,-9.71268463134766,-0.486641943454742,-0.005491351243108511,-0.005274433642625809,-0.0009501229505985975
2266949653,-0.324545085430145,-9.71269702911377,-0.48027178645134,-0.0049776132218539715,-0.0035954697523266077,-0.0010459072655066848
2279257297,-0.316995978355408,-9.70797252655029,-0.47326135635376,-0.004906761925667524,-0.0025308066979050636,-0.00129531545098871
2481431245,-0.316980719566345,-9.71268749237061,-0.476557284593582,-0.00871388241648674,-0.004373476840555668,-0.0017039361409842968
2499607801,-0.329532384872437,-9.72247314453125,-0.477775573730469,-0.006672300398349762,-0.006241366267204285,-0.001405764720402658
2516232490,-0.320011645555496,-9.7153844833374,-0.477525502443314,-0.007467153016477823,-0.008953478187322617,0.0004519960202742368
2530935049,-0.312165647745133,-9.70491981506348,-0.481895089149475,-0.009031539782881737,-0.010261734016239643,0.001448500552214682
2539101600,-0.324037700891495,-9.70762538909912,-0.484326660633087,-0.010425453074276447,-0.01075099315494299,0.0020759571343660355
2550422906,-0.319988548755646,-9.70458507537842,-0.481785148382187,-0.010983883403241634,-0.009871871210634708,0.002115434966981411
2566385507,-0.311617285013199,-9.71538543701172,-0.483339339494705,-0.00995357520878315,-0.004348759073764086,0.00023465316917281598
2610880374,-0.316061735153198,-9.70795440673828,-0.482428252696991,-0.0079506142064929,-0.00045655734720639884,-0.004192718770354986
2621899843,-0.316532105207443,-9.71404075622559,-0.478117853403091,-0.008732342161238194,-0.0029696389101445675,-0.004165738821029663
2627800226,-0.323872089385986,-9.70695304870605,-0.476673007011414,-0.009753354825079441,-0.005512946750968695,-0.0038475203327834606
2656164407,-0.316261231899261,-9.71506023406983,-0.478848993778229,-0.012017223984003067,-0.006537860259413719,-0.0006540113245137036
2666279077,-0.32066410779953,-9.72485065460205,-0.48015621304512,-0.01316140592098236,-0.005232005845755339,0.0005876061040908098
2689061164,-0.311500489711761,-9.71876239776612,-0.476477891206741,-0.013852288015186787,-0.00464606611058116,0.0020918024238198996
2699655532,-0.325293093919754,-9.71405220031738,-0.46941801905632,-0.012732046656310558,-0.005855070427060127,0.002224978990852833
2716422319,-0.318926930427551,-9.71540355682373,-0.475237905979156,-0.010925778187811375,-0.007449447643011808,0.0023180204443633556
2721801519,-0.32678210735321,-9.70763111114502,-0.481576532125473,-0.009101318195462227,-0.008751618675887585,0.002770314458757639
2727344512,-0.322713553905487,-9.71370220184326,-0.480047792196274,-0.007960736751556396,-0.009236540645360947,0.0035459662321954966
2744022846,-0.321254938840866,-9.71472930908203,-0.474185436964035,-0.00787031278014183,-0.008727836422622204,0.004206508863717318
2749851226,-0.325300812721252,-9.71268749237061,-0.475950866937637,-0.008704083040356636,-0.007517187390476465,0.004434874281287193
2766864538,-0.329589903354645,-9.70627784729004,-0.480882585048676,-0.010043813847005367,-0.006132171489298344,0.0042915563099086285
2799580812,-0.32550260424614,-9.71303844451904,-0.477492302656174,-0.013388901017606258,-0.0030969688668847084,0.002887958427891135
2806482791,-0.32489812374115,-9.70798301696777,-0.467863351106644,-0.012966830283403397,-0.0026553308125585318,0.002584292786195874
2818046092,-0.32377290725708,-9.70190525054932,-0.473045647144318,-0.011841327883303165,-0.002550050849094987,0.0028726125601679087
2827798128,-0.324547231197357,-9.70729351043701,-0.470252394676208,-0.010741479694843292,-0.0024636152666062117,0.00390865420922637
2888495683,-0.320576786994934,-9.71641063690186,-0.473004162311554,-0.012636017054319382,-0.0022183225955814123,0.008324919268488884
2899763584,-0.325105488300323,-9.71336841583252,-0.47402036190033,-0.011699972674250603,-0.003506317501887679,0.007770124822854996
2910788536,-0.320403456687927,-9.71133232116699,-0.478177189826965,-0.010545812547206879,-0.004902766551822424,0.007322967052459717
2921812534,-0.318260699510574,-9.7086353302002,-0.483120799064636,-0.00966630969196558,-0.0060335625894367695,0.006937085650861263
2935081720,-0.322278082370758,-9.71674537658691,-0.482940673828125,-0.009234505705535412,-0.006558495108038187,0.0063172196969389915
2944527864,-0.331436634063721,-9.72314643859863,-0.482289344072342,-0.009195436723530293,-0.006472472101449966,0.005152122117578983
2949620008,-0.32043719291687,-9.71539783477783,-0.474150896072388,-0.009566662833094597,-0.006243925541639328,0.003444175235927105
2955600500,-0.316413968801498,-9.71065998077393,-0.480701446533203,-0.010346705093979836,-0.006399569101631641,0.0016356792766600847
2966249227,-0.316231548786163,-9.70425415039062,-0.475620210170746,-0.011174929328262806,-0.006924162153154612,0.0003370746853761375
3127334356,-0.334426492452622,-9.71067905426026,-0.473167419433594,-0.029280349612236023,-0.003669176483526826,0.013237720355391502
3139673709,-0.333660960197449,-9.72113800048828,-0.472549915313721,-0.02802889794111252,-0.005084900185465813,0.01300035696476698
3149570941,-0.328617125749588,-9.69785594940186,-0.472498625516892,-0.02608673647046089,-0.006485318765044212,0.011723083443939686
3160874843,-0.317436307668686,-9.71237754821777,-0.463812947273254,-0.023830080404877663,-0.0072882273234426975,0.010040112771093845
3166690826,-0.315333843231201,-9.7008867263794,-0.47093877196312,-0.021357227116823196,-0.006990349385887384,0.008706103079020977
3189083576,-0.324556827545166,-9.72349452972412,-0.470970094203949,-0.015322322025895119,-0.0030193848069757223,0.00858840811997652
3238523721,-0.335516095161438,-9.69716835021973,-0.486087530851364,-0.011212796904146671,-0.009650224819779396,0.005046776961535215
3289096593,-0.319591820240021,-9.71505165100098,-0.483656942844391,-0.019156163558363914,-0.0026577613316476345,-0.0033937040716409683
3300259113,-0.333277940750122,-9.71742820739746,-0.475692272186279,-0.020675184205174446,-0.0016892182175070047,-0.0031470453832298517
3327456712,-0.328953295946121,-9.70964908599854,-0.484931379556656,-0.019285133108496666,-0.008805290795862675,0.00047833172720856965
3350876092,-0.336630970239639,-9.6992015838623,-0.476801037788391,-0.017345784232020378,-0.009997926652431488,0.0016206164145842195
3360629558,-0.330737173557281,-9.70121860504151,-0.477527737617493,-0.01713794656097889,-0.007672484498471022,0.001447632210329175
3388413906,-0.327552020549774,-9.7154016494751,-0.468216687440872,-0.01939590461552143,0.002109926426783204,0.0030511931981891394
3400031328,-0.318287223577499,-9.71371746063233,-0.470190584659576,-0.019570881500840187,0.0023265727795660496,0.004725981969386339
3410752058,-0.3274285197258,-9.71169090270996,-0.469265073537827,-0.018874268978834152,0.00043848485802300274,0.006648878566920757
3421716928,-0.331734389066696,-9.72957420349121,-0.468953520059586,-0.01741328276693821,-0.002618304919451475,0.008532562293112278
3427435159,-0.321309030056,-9.7261962890625,-0.466365844011307,-0.0157143734395504,-0.005946776829659939,0.010143515653908253
3438786506,-0.328105002641678,-9.71169185638428,-0.465558409690857,-0.01438996009528637,-0.009127413854002953,0.011387248523533344
3460762739,-0.329505145549774,-9.7174186706543,-0.471082508563995,-0.013613049872219563,-0.01325287576764822,0.013225575909018517
3466649055,-0.326115906238556,-9.72183036804199,-0.462269872426987,-0.013930360786616802,-0.013147665187716484,0.014066065661609173
3477340936,-0.341825783252716,-9.72013282775879,-0.469615548849106,-0.014560278505086899,-0.011886004358530045,0.01476660929620266
3488412380,-0.316641867160797,-9.71707820892334,-0.472400844097137,-0.015510606579482555,-0.010409374721348286,0.015149835497140884
3516394138,-0.329511791467667,-9.71439361572266,-0.47234171628952,-0.01654624566435814,-0.009683904238045216,0.013176689855754375
3700691699,-0.329171180725098,-9.71574974060059,-0.468633383512497,-0.01552792638540268,-0.008253875188529491,0.010692982003092766
3718141794,-0.326429665088654,-9.70628547668457,-0.479441195726395,-0.016513777896761894,-0.009279034100472927,0.012440735474228859
3722492933,-0.311808973550797,-9.70998382568359,-0.47650021314621,-0.0170308668166399,-0.009387310594320297,0.01354571245610714
3739744901,-0.314777076244354,-9.72113037109375,-0.477682292461395,-0.015056246891617775,-0.007089211605489254,0.011628092266619205
3952259540,-0.317059636116028,-9.72550392150879,-0.479257851839066,-0.010662892833352089,-0.00545066874474287,0.008551400154829025
3959527730,-0.310945987701416,-9.72077655792237,-0.483285635709763,-0.007159651257097721,-0.007447806186974049,0.008181299082934856
3974929332,-0.319609999656677,-9.72079467773438,-0.478985756635666,-0.0041319276206195354,-0.009343178942799568,0.007326107006520033
3980276107,-0.313581585884094,-9.72922325134277,-0.478837549686432,-0.0020178472623229027,-0.011083880439400673,0.005828718654811382
3991403341,-0.315564811229706,-9.72383308410645,-0.473675608634949,-0.0010983742540702224,-0.012693713419139385,0.003969860263168812
4002645492,-0.315720319747925,-9.71978759765625,-0.47642570734024,-0.0012770488392561674,-0.014203017577528954,0.0023517983499914408
4058265924,-0.330323249101639,-9.71572113037109,-0.477769643068314,-0.009765111841261387,-0.009166201576590538,0.005664651747792959
4069884300,-0.314903467893601,-9.7160758972168,-0.468657493591309,-0.010824880562722683,-0.008113963529467583,0.006637178361415863
4125017642,-0.33873462677002,-9.71809768676758,-0.483110636472702,-0.01540831383317709,-0.010128824040293694,0.005668412894010544
4130330085,-0.317336142063141,-9.70761585235596,-0.487049072980881,-0.017444400116801262,-0.00904596596956253,0.004044059198349714
4171051740,-0.311043530702591,-9.71604537963867,-0.494043260812759,-0.01847510039806366,-0.003330994164571166,-0.0029026425909250975
4197032213,-0.305364012718201,-9.72009181976319,-0.493279576301575,-0.006633801851421595,-0.0031907439697533846,-0.008745705708861351
4235754013,-0.323201149702072,-9.71506500244141,-0.476120144128799,-1.0977652891597245e-05,-0.004695610608905554,-0.012161669321358204
4246860027,-0.318321317434311,-9.70660781860352,-0.484738826751709,-0.002368304645642638,-0.004865881055593491,-0.011277256533503532
4280247926,-0.335954517126083,-9.71202087402344,-0.479342401027679,-0.011406916193664074,-0.003572798566892743,-0.005162398796528578
4302372217,-0.325114756822586,-9.71033573150635,-0.48114013671875,-0.01361235324293375,-0.0029334111604839563,-0.0032458254136145115
4335943698,-0.330586671829224,-9.71438598632812,-0.48080962896347,-0.01628306321799755,-0.0013614038471132517,0.001739275990985334
4519117116,-0.326131969690323,-9.70493698120117,-0.473562061786652,-0.013925519771873951,-0.014150931499898434,0.011912452057003975
4546906709,-0.321933716535568,-9.70831680297852,-0.475533396005631,-0.008774839341640472,-0.007532081566751003,0.005338197108358145
4558338880,-0.319118618965149,-9.70663261413574,-0.472526758909226,-0.007747810799628496,-0.004438227973878384,0.004862322472035885
4569076061,-0.312202572822571,-9.71268367767334,-0.4811772108078,-0.0073259565979242325,-0.001959830056875944,0.0048868246376514435
4580457210,-0.31994241476059,-9.71675968170166,-0.469835579395294,-0.007295837160199881,-0.0004597351944539696,0.00512359756976366
4591512918,-0.32793778181076,-9.71370601654053,-0.4752217233181,-0.007337035611271858,-0.00016052568389568478,0.0053736246190965176
4602814435,-0.320910900831223,-9.70358753204346,-0.477215558290482,-0.0074492646381258965,-0.0010074771707877517,0.005595499183982611
4630251884,-0.33456027507782,-9.71338558197022,-0.46151214838028,-0.010060934349894524,-0.003507062327116728,0.0068480451591312885
4682476758,-0.319480419158936,-9.71135902404785,-0.463309526443481,-0.018115704879164696,-0.0015971455723047256,0.01362987607717514
4691714525,-0.314724296331406,-9.70964431762695,-0.473157793283463,-0.01889447495341301,-0.003426261944696307,0.015530717559158802
4708869934,-0.323629796504974,-9.7127046585083,-0.464632034301758,-0.018389953300356865,-0.0056106531992554665,0.016999097540974617
4724826097,-0.318472236394882,-9.71203327178955,-0.469221502542496,-0.013789476826786995,-0.007546807173639536,0.01668105460703373
4952460050,-0.310865044593811,-9.72213268280029,-0.479147672653198,-0.004542846232652664,-0.006901687942445278,0.009381171315908432
4963688373,-0.314985007047653,-9.70932197570801,-0.472635269165039,-0.0028003454208374023,-0.009303528815507889,0.007401417475193739
4969742536,-0.326062887907028,-9.70123672485352,-0.472976922988892,-0.0015895279357209802,-0.01101276557892561,0.0053235068917274475
5011591196,-0.313183307647705,-9.72821712493897,-0.474395006895065,-0.0037447211798280478,-0.006734879221767187,0.004916676320135593
5022284746,-0.3168665766716,-9.71304893493652,-0.467809855937958,-0.005870507564395666,-0.003836812684312463,0.006965919863432646
5038902521,-0.324509888887405,-9.71574306488037,-0.472135782241821,-0.008463132195174694,-0.0026414727326482534,0.010340019129216671
5161257982,-0.328734904527664,-9.71777629852295,-0.467032611370087,-0.011117169633507729,-0.012987162917852402,0.0055182259529829025
5166104793,-0.33355125784874,-9.71305370330811,-0.46294704079628,-0.01388249546289444,-0.01503946352750063,0.006295481696724892
5215859651,-0.346211314201355,-9.724853515625,-0.474999040365219,-0.0244403425604105,-0.01425496581941843,0.01227673888206482
5222233295,-0.33227601647377,-9.71103000640869,-0.468135863542557,-0.0253776703029871,-0.014454447664320469,0.012018409557640553
5233614444,-0.325297296047211,-9.73600196838379,-0.466312319040299,-0.026072952896356583,-0.015402786433696747,0.01092753279954195
5239103317,-0.322264909744263,-9.71101570129395,-0.473710149526596,-0.026260798797011375,-0.016400182619690895,0.009724515490233898
5282442569,-0.310497492551804,-9.71842956542969,-0.476527452468872,-0.016552302986383438,-0.011684427037835121,0.006789163686335087
5478658914,-0.305037885904312,-9.7143669128418,-0.487808138132095,-0.004509137012064457,0.005074287299066782,0.004749479237943888
5488814353,-0.299739241600037,-9.7005205154419,-0.49880775809288,-0.0012522548204287887,0.003308377228677273,0.0035775797441601753
5526847600,-0.28486043214798,-9.69479656219483,-0.485674440860748,0.009335847571492195,-0.0013156686909496784,-0.006776636932045221
5538733720,-0.292365312576294,-9.69716167449951,-0.481653124094009,0.012680972926318645,-0.00019835868442896754,-0.009733146987855434
5549951314,-0.293603181838989,-9.70998001098633,-0.481153190135956,0.01595105603337288,0.002361925318837166,-0.010837787762284279
5563388586,-0.29090678691864,-9.70357608795166,-0.469394594430924,0.01878722943365574,0.0053917765617370605,-0.009859155863523483
5649864673,-0.3228360414505,-9.71101951599121,-0.460877656936646,0.0013307011686265469,0.000498358451295644,0.0078009553253650665
5655433177,-0.329191118478775,-9.71878337860108,-0.457949668169022,-0.0031432281248271465,0.0027011435013264418,0.009949060156941414
5673693656,-0.325184732675552,-9.71370315551758,-0.466114431619644,-0.007291169371455908,0.003564693732187152,0.01314290426671505
5712539911,-0.310240566730499,-9.70728874206543,-0.47179764509201,-0.012762748636305332,-0.0031493010465055704,0.020841341465711594
5723676681,-0.302039265632629,-9.71132659912109,-0.474189221858978,-0.010386766865849495,-0.005318453535437584,0.02078316919505596
5734114885,-0.288960665464401,-9.70051288604737,-0.480214774608612,-0.006122537888586521,-0.005918506532907486,0.019145358353853226
5895899534,-0.322073817253113,-9.70898151397705,-0.474376708269119,-0.015822093933820724,-0.018449436873197556,0.014125834219157696
5910207509,-0.317748337984085,-9.72180366516113,-0.476490318775177,-0.016005927696824074,-0.01781732216477394,0.012080250307917595
5918791294,-0.304722189903259,-9.7248363494873,-0.475493311882019,-0.0156186418607831,-0.015547502785921097,0.010643579997122288
5929318189,-0.32083922624588,-9.72012710571289,-0.466639935970306,-0.014076907187700272,-0.012732594273984432,0.009526373818516731
5940316915,-0.320882767438889,-9.71470355987549,-0.481705516576767,-0.01134570688009262,-0.010581821203231812,0.008574879728257656
5957011938,-0.316140860319138,-9.70999908447266,-0.467466741800308,-0.005511301103979349,-0.00951393973082304,0.006962012965232134
5968510389,-0.311189562082291,-9.70830917358398,-0.472727507352829,-0.003907171078026295,-0.009577927179634571,0.0061891148798167706
6139379978,-0.313187509775162,-9.71402072906494,-0.489105522632599,-0.006657016929239035,-0.0046377116814255714,7.926818943815306e-05
6150130510,-0.306677579879761,-9.70188236236572,-0.487491309642792,-0.0027697894256561995,-0.004661088809370995,-0.003980550915002823
6154879570,-0.299956440925598,-9.70119667053223,-0.492580652236938,0.00016023212810978293,-0.004781872499734163,-0.007368088699877262
6166532754,-0.303614646196365,-9.70154476165772,-0.491095513105393,0.0022438543383032084,-0.004296364728361368,-0.009628333151340485
6178893327,-0.307265490293503,-9.68735504150391,-0.492338746786118,0.0038493089377880096,-0.002681298181414604,-0.010741575621068478
6199318885,-0.322261899709702,-9.69952964782715,-0.47775074839592,0.005997618194669485,0.003802376100793481,-0.010678387247025967
6211682796,-0.329471558332443,-9.70931625366211,-0.478710412979126,0.005773262586444616,0.00731635419651866,-0.009731118567287922
6238055229,-0.317939668893814,-9.71573734283447,-0.473691463470459,5.7025325077120215e-05,0.009947004728019238,-0.005170912016183138
6260504484,-0.332695305347443,-9.70866489410401,-0.459828168153763,-0.009893788956105709,0.004640386439859867,0.0020942194387316704
6270887136,-0.329101026058197,-9.71812152862549,-0.461632490158081,-0.013996857218444347,1.5827286915737204e-05,0.005692772567272186
6404755592,-0.318225979804993,-9.7116813659668,-0.472026497125626,-0.00019792660896200687,0.0027636054437607527,0.005209094379097223
6565954685,-0.305501908063889,-9.70492935180664,-0.482203543186188,-0.003918216098099947,-0.004321634769439697,0.005994552746415138
6578209638,-0.317847102880478,-9.72347927093506,-0.477524191141129,-0.0013983113458380103,-0.0040787020698189735,0.004029489122331142
6632633209,-0.328238546848297,-9.70459461212158,-0.475020349025726,-0.0039570508524775505,-0.010613244026899338,0.000947236199863255
6643904447,-0.33834308385849,-9.72182559967041,-0.461441934108734,-0.006458273157477379,-0.010735239833593369,0.0035385938826948404
6654990434,-0.329773485660553,-9.7106761932373,-0.466650485992432,-0.009271906688809395,-0.00968717597424984,0.006705623585730791
6665975570,-0.330613613128662,-9.72282791137695,-0.465173423290253,-0.012479055672883987,-0.008084814995527267,0.009887337684631348
6683193206,-0.329283207654953,-9.72080039978027,-0.473138123750687,-0.018734699115157127,-0.0065300967544317245,0.014563564211130142
6732637643,-0.319829314947128,-9.72180843353272,-0.474855661392212,-0.017886707559227943,-0.014083807356655598,0.010900831781327724
6777174472,-0.315283507108688,-9.70458984375,-0.479988515377045,-0.008767818100750446,-0.008260912261903286,0.003477861639112234
6788180112,-0.322540163993835,-9.72316265106201,-0.47754043340683,-0.007358920760452747,-0.008008311502635479,0.0019849396776407957
6799301624,-0.320762246847153,-9.72349643707276,-0.478862822055817,-0.006368085741996765,-0.008348379284143448,0.0012057836866006255
6805002212,-0.320071309804916,-9.71506118774414,-0.476176023483276,-0.005982445552945137,-0.009042358957231045,0.00111953925807029
6838569641,-0.325945943593979,-9.71235466003418,-0.473711967468262,-0.008504948578774929,-0.01078529842197895,0.0035030196886509657
6849629640,-0.329723030328751,-9.70764255523682,-0.469851493835449,-0.010186241939663887,-0.010080886073410511,0.00477517070248723
6977024555,-0.31876528263092,-9.71470355987549,-0.481863975524902,0.0010200480464845896,-0.006103967782109976,0.006823787000030279
7165854692,-0.323492348194122,-9.71640396118164,-0.475967526435852,-0.005582804791629314,-0.006828264333307743,0.0009548404486849904
7177034616,-0.322498708963394,-9.72214317321777,-0.482867240905762,-0.005120187532156706,-0.005574896465986967,-0.00011311745038256049
7227007150,-0.305205523967743,-9.70763874053955,-0.47526028752327,-0.0095900297164917,-0.003649607300758362,0.00024565673083998263
7243744373,-0.316267073154449,-9.70493507385254,-0.474500507116318,-0.008678187616169453,-0.0023319977335631847,0.0017647870117798448
7265927314,-0.332912862300873,-9.69887256622315,-0.468271732330322,-0.007167232222855091,-0.000983062433078885,0.0035473175812512636
7400815248,-0.328220814466476,-9.71504783630371,-0.484594970941544,-0.008782840333878994,-0.004248632583767176,0.000851268763653934
7407458066,-0.327173888683319,-9.70898818969727,-0.469875693321228,-0.00958513468503952,-0.004193289205431938,0.0026460853405296803
7461217641,-0.33422788977623,-9.70798301696777,-0.469785243272781,-0.015487241558730602,-0.0031660529784858227,0.007103555370122194
7490471124,-0.321120083332062,-9.70832633972168,-0.461706608533859,-0.016646135598421097,-0.0025593056343495846,0.00627140374854207
7494611263,-0.333971053361893,-9.71641254425049,-0.473904252052307,-0.01608964614570141,-0.0022625462152063847,0.0065803928300738335
7505678892,-0.321538239717484,-9.72012424468994,-0.46709156036377,-0.015276657417416573,-0.0024151483085006475,0.0074562793597579
7516802072,-0.320160388946533,-9.72417163848877,-0.476336568593979,-0.01455062534660101,-0.0032786803785711527,0.00873776338994503
7605677127,-0.322225093841553,-9.70932960510254,-0.47034826874733,-0.010053052566945553,-0.004469314124435186,0.0071789659559726715
7617218017,-0.321359664201737,-9.71472454071045,-0.469011336565018,-0.009813753888010979,-0.002741052769124508,0.0063843694515526295
7628896474,-0.311992466449738,-9.71539783477783,-0.467780411243439,-0.00987517274916172,-0.0016730951610952616,0.0064293937757611275
7641231060,-0.3171566426754,-9.71236228942871,-0.471618205308914,-0.009921218268573284,-0.0015557066071778536,0.007350255735218525
7655678510,-0.314005106687546,-9.71504783630371,-0.472851455211639,-0.009516018442809582,-0.002366111846640706,0.008798233233392239
7672287940,-0.311508029699326,-9.70896053314209,-0.479425311088562,-0.008450638502836227,-0.0037291254848241806,0.010158348828554153
7677887678,-0.327680826187134,-9.71876239776612,-0.473051249980927,-0.0068939668126404285,-0.005112068261951208,0.010793396271765232
7868004322,-0.329494744539261,-9.7126989364624,-0.465699851512909,-0.01190339494496584,-0.008818441070616245,0.009329039603471756
7889737606,-0.318725615739822,-9.72348785400391,-0.478993773460388,-0.009825951419770718,-0.006960773840546608,0.007142753805965185
7894695043,-0.319903045892716,-9.7133731842041,-0.468045473098755,-0.008704876527190208,-0.005608204286545515,0.006108330562710762
7904695510,-0.328315883874893,-9.71708774566651,-0.468812614679337,-0.008588484488427639,-0.005178153049200773,0.006145637482404709
7979078531,-0.323429942131042,-9.70966529846191,-0.469829142093658,-0.0154317831620574,-0.0012083540204912424,0.013707609847187996
8023164033,-0.324799180030823,-9.72317123413086,-0.470310300588608,-0.015874164178967476,-0.0036781039088964462,0.014858136884868145
8116108655,-0.316328495740891,-9.71506881713867,-0.469670057296753,-0.00789866503328085,-0.005421825684607029,0.009748588316142559
8200535058,-0.316597908735275,-9.70561504364014,-0.474384605884552,-0.008753227069973946,-0.002124175662174821,0.007463743910193443
8210604906,-0.32129293680191,-9.71440982818604,-0.464940071105957,-0.008425148203969002,-0.0019138384377583861,0.007571402937173843
8216247558,-0.316767752170563,-9.71202850341797,-0.473444849252701,-0.007948045618832111,-0.0019870824180543423,0.008092286996543407
8228789567,-0.311453640460968,-9.71640682220459,-0.480716347694397,-0.007436045911163092,-0.0023539219982922077,0.00883136410266161
8287890911,-0.325658649206162,-9.71507930755615,-0.4656081199646,-0.0073922500014305115,-0.006571609526872635,0.008550223894417286
8293809652,-0.323933690786362,-9.71610069274902,-0.459531515836716,-0.009301495738327503,-0.007539532147347927,0.00887768343091011
8300265312,-0.318489402532578,-9.71066188812256,-0.478359699249268,-0.01162533089518547,-0.007991177961230278,0.010092999786138535
8305641651,-0.316226124763489,-9.70967102050781,-0.47302508354187,-0.013492625206708908,-0.007893776521086693,0.011785690672695637
8316259622,-0.326213121414185,-9.70697593688965,-0.465315580368042,-0.014182220213115215,-0.00725747412070632,0.01311196107417345
8329613685,-0.329122185707092,-9.70426845550537,-0.474020838737488,-0.013616307638585567,-0.006076322868466377,0.013485273346304893
8338321208,-0.326303690671921,-9.71271228790283,-0.471355259418488,-0.012475267052650452,-0.0044277263805270195,0.012938507832586765
8538239002,-0.328428775072098,-9.72182464599609,-0.469410747289658,-0.010101853869855404,-0.0010336277773603797,0.014598267152905464
8549437761,-0.319648057222366,-9.71001434326172,-0.4675312936306,-0.008415036834776402,-0.0010074449237436056,0.014112776145339012
8560826301,-0.311062872409821,-9.71472358703613,-0.465853989124298,-0.007267417386174202,-0.0018135600257664919,0.013079938478767872
8589335918,-0.331518650054932,-9.71304893493652,-0.467819452285767,-0.006192466709762812,-0.005660158582031727,0.011431260034441948
8599391937,-0.324639588594437,-9.70999908447266,-0.470666915178299,-0.005892908200621605,-0.005851455964148045,0.01176781952381134
8611154317,-0.309016078710556,-9.7052640914917,-0.478155493736267,-0.006206420250236988,-0.005394367501139641,0.01206971425563097
8621651887,-0.326159298419952,-9.72350883483887,-0.467104464769363,-0.007193050812929869,-0.004549182485789061,0.011987940408289433
8799322366,-0.323560923337936,-9.70763969421387,-0.469612419605255,-0.011053625494241714,-0.007036118768155575,0.01078714057803154
8811006784,-0.318125575780869,-9.71201801300049,-0.474556535482407,-0.012137418612837791,-0.005330175627022982,0.009892527014017105
8815968751,-0.310432612895966,-9.70661449432373,-0.473363101482391,-0.01307426393032074,-0.003924601711332798,0.009291619062423706
8827336072,-0.317964285612106,-9.70730304718018,-0.473152667284012,-0.01308736577630043,-0.0029064216651022434,0.008919170126318932
8849272012,-0.324394971132278,-9.70122337341309,-0.472232550382614,-0.009628930129110813,-0.0015950103988870978,0.008240974508225918
9015977859,-0.325969785451889,-9.7140531539917,-0.471518516540527,-0.003597330069169402,-0.0063271112740039825,0.004866007249802351
9027360439,-0.325930774211884,-9.71133995056152,-0.473876148462296,-0.00502806855365634,-0.006221357267349958,0.003770270850509405
9038215160,-0.315090954303741,-9.70728874206543,-0.476928323507309,-0.007364952005445957,-0.006053850520402193,0.0037979630287736654
9049294471,-0.322696208953857,-9.72923374176026,-0.474033981561661,-0.009847610257565975,-0.005714802071452141,0.004688658751547337
9054857730,-0.324093252420425,-9.71236801147461,-0.470743060112,-0.011664129793643951,-0.0054419636726379395,0.00585628068074584
9078904390,-0.325799912214279,-9.71911811828613,-0.470944166183472,-0.012802942655980587,-0.006669193971902132,0.0077116526663303375
9139191150,-0.329277873039246,-9.7184476852417,-0.465023189783096,-0.015949076041579247,-0.007470571901649237,0.006838758941739798
9221547126,-0.32104080915451,-9.71202850341797,-0.471155911684036,-0.009171736426651478,-0.0051110899075865746,0.008829575031995773
9305205345,-0.322701394557953,-9.71742725372315,-0.469447731971741,-0.008381851017475128,-0.008146481588482857,0.008397646248340607
9310351133,-0.327421128749847,-9.71608543395996,-0.466435313224792,-0.00991937704384327,-0.00880484189838171,0.009061012417078018
9337004423,-0.324206441640854,-9.71270084381104,-0.471203953027725,-0.01254811231046915,-0.009634318761527538,0.012340487912297249
9358325958,-0.318680971860886,-9.71843147277832,-0.477554738521576,-0.010443861596286297,-0.0074267638847231865,0.011936388909816742
9545586824,-0.324625194072723,-9.71574592590332,-0.468731343746185,-0.011363920755684376,-0.003782089566811919,0.007992135360836983
9559452533,-0.315052568912506,-9.72182655334473,-0.473723828792572,-0.011313371360301971,-0.003175584599375725,0.008464963175356388
9580224037,-0.322206139564514,-9.71439743041992,-0.4743832051754,-0.010261750780045986,-0.004264438059180975,0.009519991464912891
9590561866,-0.316832810640335,-9.70864486694336,-0.477913498878479,-0.00942402333021164,-0.006008330266922712,0.009607212617993355
9601068019,-0.322476625442505,-9.7052755355835,-0.475502371788025,-0.008688520640134811,-0.007651715539395809,0.009126455523073673
9773185253,-0.313866823911667,-9.70459175109863,-0.475089401006699,-0.009422573260962963,-0.005691956263035536,0.007442965172231197
9790267705,-0.327436953783035,-9.71338272094727,-0.467149406671524,-0.009560693055391312,-0.0037026340141892433,0.007286388892680407
9802405834,-0.316138058900833,-9.71134567260742,-0.472175419330597,-0.009532947093248367,-0.0017248495714738965,0.007806464564055204
9806548357,-0.312229186296463,-9.70728874206543,-0.47376012802124,-0.009399818256497383,-0.0003684920084197074,0.008642137981951237
9939977645,-0.323718637228012,-9.72214221954346,-0.474418342113495,-0.01426667906343937,-0.0035170726478099823,0.011042863130569458
9945916414,-0.323317497968674,-9.7160816192627,-0.463678300380707,-0.013508087024092674,-0.0034101493656635284,0.012098095379769802
9956532001,-0.322708010673523,-9.71742725372315,-0.469292432069778,-0.012488681823015213,-0.0033769062720239162,0.012780331075191498
9967797517,-0.321865350008011,-9.71302700042725,-0.46813040971756,-0.011607850901782513,-0.003963414113968611,0.013119498267769814
9978722572,-0.314454823732376,-9.72315692901612,-0.470737367868424,-0.011019818484783173,-0.005211403127759695,0.013191602192819118
10117633819,-0.309871762990952,-9.71538925170898,-0.476374238729477,-0.013900733552873135,-0.005656262394040823,0.005293820984661579
10130406618,-0.320146888494492,-9.72010612487793,-0.481406033039093,-0.014318320900201797,-0.006635807920247316,0.00547270942479372
10140778541,-0.320999145507812,-9.71339225769043,-0.464721709489822,-0.013988647609949112,-0.007802851498126984,0.006026256363838911
10156529664,-0.313607007265091,-9.72010612487793,-0.469959944486618,-0.0127340042963624,-0.008900376968085766,0.006571363657712936
10173180103,-0.330838441848755,-9.72080707550049,-0.472434550523758,-0.009322565980255604,-0.010238571092486382,0.008069603703916073
10345413923,-0.318898528814316,-9.70259475708008,-0.463646799325943,-0.010234714485704899,-0.00749731482937932,0.009360448457300663
10356555223,-0.314781129360199,-9.71336078643799,-0.478062927722931,-0.010066132061183453,-0.005081903655081987,0.009002546779811382
10368358135,-0.327521026134491,-9.71506118774414,-0.472270369529724,-0.009927211329340935,-0.0022587738931179047,0.008598805405199528
10379339218,-0.321411401033402,-9.70527362823487,-0.472103744745255,-0.009757461957633495,-1.9553892343537882e-05,0.008315061219036579
10384589672,-0.318819016218185,-9.70628929138184,-0.477158099412918,-0.00965153705328703,0.0009752461919561028,0.008114438503980637
10525156259,-0.320515125989914,-9.7083158493042,-0.472222775220871,-0.009219938889145851,-0.008747730404138565,0.01081176195293665
10536132812,-0.32099437713623,-9.72722053527832,-0.470485776662827,-0.007362554781138897,-0.007679586298763752,0.010931175202131271
10587018489,-0.33264571428299,-9.71202278137207,-0.476802289485931,-0.007712254766374826,-0.007732238154858351,0.007726818788796663
10753521442,-0.317487359046936,-9.70427322387695,-0.469808846712112,-0.012266343459486961,-0.007503732573240995,0.00733599066734314
10764379262,-0.324488818645477,-9.70594882965088,-0.476173311471939,-0.013012227602303028,-0.005849320907145739,0.006027847994118929
10769637107,-0.317776560783386,-9.71606922149658,-0.473318815231323,-0.013029083609580994,-0.0037761356215924025,0.004995976574718952
10780763626,-0.320747494697571,-9.72823619842529,-0.468981117010117,-0.012351296842098236,-0.0019196870271116495,0.00456974608823657
10808666706,-0.328696042299271,-9.71471118927002,-0.480962157249451,-0.008083980530500412,-0.003930170554667711,0.0074656447395682335
10897403240,-0.319566816091538,-9.71101570129395,-0.466609001159668,-0.012475371360778809,-0.0027911500073969364,0.005602354183793068
10908788681,-0.315209299325943,-9.7150707244873,-0.466170161962509,-0.011691629886627197,-0.0029734878335148096,0.006335332989692688
10919672012,-0.322022527456284,-9.71304225921631,-0.466820597648621,-0.009977631270885468,-0.0031230193562805653,0.007461972534656525
10930804491,-0.31552255153656,-9.71269321441651,-0.472383856773376,-0.007989918813109398,-0.0033790862653404474,0.008966482244431973
11042062044,-0.307746022939682,-9.7147102355957,-0.474794864654541,-0.008109957911074162,-0.004834695253521204,0.01419718749821186
11047504901,-0.328826278448105,-9.71946048736572,-0.464877218008041,-0.008057662285864353,-0.004597810562700033,0.013577254489064217
11097236394,-0.322804003953934,-9.71843719482422,-0.471248805522919,-0.008320282213389874,-0.007411530707031488,0.007690744940191507
11280849456,-0.323784649372101,-9.71100902557373,-0.470910280942917,-0.0074901459738612175,-0.006786165293306112,0.004401277285069227
11291216373,-0.317954838275909,-9.70425128936768,-0.479050159454346,-0.008063978515565395,-0.006723306141793728,0.004503150936216116
11308269739,-0.327125132083893,-9.71710014343262,-0.463134229183197,-0.008139512501657009,-0.00651802122592926,0.004873733967542648
11315536499,-0.320605367422104,-9.71979999542237,-0.467782855033875,-0.008070193231105804,-0.005949489772319794,0.005578241311013699
11319556713,-0.33163794875145,-9.71371650695801,-0.463485866785049,-0.00831256527453661,-0.005324327386915684,0.006792875938117504
11325201988,-0.317583501338959,-9.71269321441651,-0.473113179206848,-0.00912462268024683,-0.005125007592141628,0.00858228001743555
11341956138,-0.330734997987747,-9.70562076568604,-0.46818545460701,-0.010430704802274704,-0.005422318819910288,0.010634677484631538
11669515132,-0.319928258657455,-9.71406650543213,-0.468730002641678,-0.00796575378626585,-0.0068598901852965355,0.008412651717662811
11675045490,-0.317164748907089,-9.72147274017334,-0.476252675056458,-0.007533411029726267,-0.008159603923559189,0.007286732085049152
11686607122,-0.328490853309631,-9.71946239471436,-0.46631646156311,-0.007217928301542997,-0.00895495805889368,0.006165201775729656
11697446107,-0.320311635732651,-9.7106761932373,-0.466256439685822,-0.007246421650052071,-0.009381411597132683,0.0056328801438212395
11709840536,-0.330779731273651,-9.71371841430664,-0.468746334314346,-0.007840344682335854,-0.009557664394378662,0.006094465963542461
11719400882,-0.326508164405823,-9.71506500244141,-0.475126504898071,-0.00907987728714943,-0.009391597472131252,0.007526481058448553
11727074861,-0.322147518396378,-9.71371269226074,-0.470147967338562,-0.010828147642314434,-0.008819257840514183,0.009378204122185707
11735987663,-0.322730243206024,-9.71944522857666,-0.473178744316101,-0.012681049294769764,-0.008010203018784523,0.010887796990573406
11886800765,-0.313765972852707,-9.72213268280029,-0.483249694108963,-0.010584398172795773,-0.0056986152194440365,0.007195721846073866
11897228240,-0.326374232769012,-9.71068859100342,-0.46535986661911,-0.007780359126627445,-0.006156181450933218,0.007022176869213581
12201715707,-0.320919781923294,-9.71338081359863,-0.469186812639237,-0.008773699402809143,-0.004502821248024702,0.00889939907938242
12213894367,-0.328788340091705,-9.7224931716919,-0.475046098232269,-0.011132781393826008,-0.004375193268060684,0.00841353926807642
12218839645,-0.322012841701508,-9.72250080108643,-0.461413234472275,-0.012956966646015644,-0.005180236883461475,0.007670501712709665
12230519533,-0.319198191165924,-9.7174243927002,-0.472869664430618,-0.013976460322737694,-0.006818100344389677,0.007249842863529921
12297182798,-0.325757741928101,-9.71337032318115,-0.478222072124481,-0.0073836492374539375,-0.006167320534586906,0.005727366078644991
12319314718,-0.312338501214981,-9.71641063690186,-0.476324826478958,-0.005244819447398186,-0.0040068430826067924,0.005698616150766611
12331333160,-0.320710957050323,-9.7049388885498,-0.474218457937241,-0.004748779349029064,-0.0044721816666424274,0.005739988759160042
12336289167,-0.324360370635986,-9.70627689361572,-0.479371011257172,-0.0047951857559382915,-0.005347493104636669,0.005746854469180107
12347568511,-0.316559165716171,-9.71641635894776,-0.47419798374176,-0.005336405709385872,-0.005846543237566948,0.005667285528033972
12447284460,-0.318219989538193,-9.70897960662842,-0.482339560985565,-0.007360072806477547,-0.006076877471059561,0.012300709262490273
12475079298,-0.320021420717239,-9.71675109863281,-0.46981206536293,-0.001187441754154861,-0.007121950853615999,0.008024515584111214
12696945190,-0.322028517723083,-9.70730781555176,-0.47244718670845,-0.010271087288856506,-0.006062112282961607,0.0048127733170986176
12707963228,-0.313026458024979,-9.71337890625,-0.469370007514954,-0.010838075540959835,-0.0069046891294419765,0.005303489975631237
12719357252,-0.3122518658638,-9.71369552612305,-0.483714699745178,-0.0113086998462677,-0.007020882796496153,0.006574539467692375
12735759973,-0.326489746570587,-9.71742153167725,-0.468326210975647,-0.009891119785606861,-0.005708715412765741,0.008776676841080189
12746687650,-0.322971671819687,-9.71371841430664,-0.470470875501633,-0.008126916363835335,-0.005227674730122089,0.008843877352774143
12770639419,-0.322094172239304,-9.70762825012207,-0.473079770803452,-0.006391958333551884,-0.005722985602915287,0.00842306762933731
12996680974,-0.32707479596138,-9.72216415405273,-0.465047687292099,-0.012871469371020794,-0.005887787789106369,0.012007666751742363
13007807254,-0.326014041900635,-9.71675777435303,-0.470487952232361,-0.013645674102008343,-0.0057951295748353004,0.012327703647315502
13013458013,-0.316970705986023,-9.70729732513428,-0.482180118560791,-0.01402562391012907,-0.006362944841384888,0.012093687430024147
13030180215,-0.310143917798996,-9.7123556137085,-0.475819975137711,-0.013425568118691444,-0.007757135201245546,0.009939911775290966
13182563781,-0.317453175783157,-9.71944999694824,-0.473997354507446,-0.0069976928643882275,-0.006177505943924189,0.006243461277335882
13247856378,-0.319183081388474,-9.7174186706543,-0.474819719791412,-0.011095601134002209,-0.0036818920634686947,0.005632238462567329
13429994821,-0.316167831420898,-9.71945190429688,-0.469272077083588,-0.007960019633173943,-0.005888125393539667,0.006886065471917391
13441196918,-0.315894246101379,-9.70190525054932,-0.472425192594528,-0.006839947775006294,-0.006179592106491327,0.007142081391066313
13448964357,-0.319721400737762,-9.70492839813233,-0.481252104043961,-0.006532547529786825,-0.006295303348451853,0.00788122322410345
13458284378,-0.319706708192825,-9.71068477630615,-0.465031445026398,-0.006724300794303417,-0.005863499362021685,0.008599596098065376
13468944787,-0.324890911579132,-9.71506690979004,-0.469526380300522,-0.007122254464775324,-0.004704525228589773,0.008945572189986706
13496627569,-0.326683968305588,-9.70932960510254,-0.4714515209198,-0.008607044816017151,-0.0023150439374148846,0.008867437019944191
13502131700,-0.305327504873276,-9.70763397216797,-0.477222084999084,-0.009892863221466541,-0.0022835242561995983,0.00856911763548851
13513825178,-0.313654899597168,-9.72079372406006,-0.47198697924614,-0.011030539870262146,-0.0029583836439996958,0.008036973886191845
13519051551,-0.324038922786713,-9.7177734375,-0.468718081712723,-0.011190982535481453,-0.003941692411899567,0.007401499431580305
13530098915,-0.328246146440506,-9.70661544799805,-0.476933866739273,-0.010167388245463371,-0.0050498200580477715,0.006938266102224588
13535704612,-0.309382319450378,-9.70932579040527,-0.474964261054993,-0.008678060956299305,-0.006073934491723776,0.0068245395086705685
13607969045,-0.31449630856514,-9.71202850341797,-0.472144186496735,-0.005697878543287516,-0.0018429532647132874,0.007688443176448345
13906069993,-0.323267549276352,-9.7089900970459,-0.471307516098022,-0.006972687318921089,-0.0085616959258914,0.006432306952774525
13916976213,-0.316976755857468,-9.71640205383301,-0.47962749004364,-0.006943582557141781,-0.0067521496675908566,0.005614731460809708
13944821119,-0.323495835065842,-9.7204532623291,-0.476299494504929,-0.01070114504545927,-0.003933010622859001,0.00485960440710187
13961479187,-0.318187147378922,-9.71336555480957,-0.475205391645432,-0.01192410197108984,-0.0048813652247190475,0.00508066127076745
13972330331,-0.327069938182831,-9.70932006835938,-0.475615620613098,-0.01274252962321043,-0.006353752687573433,0.005439951550215483
13978052854,-0.321024596691132,-9.72417640686035,-0.47757151722908,-0.013004349544644356,-0.007722948677837849,0.005760279484093189
13989099264,-0.327529847621918,-9.71303272247315,-0.476295113563538,-0.012812011875212193,-0.008576062507927418,0.0058734118938446045
14000719308,-0.317754000425339,-9.70999813079834,-0.473616033792496,-0.01243361085653305,-0.008892484940588474,0.005716057028621435
14139133453,-0.317635864019394,-9.70965957641602,-0.476288437843323,-0.0072586070746183395,-0.0033998212311416864,0.004748587496578693
14229213714,-0.32315981388092,-9.71842670440674,-0.475988060235977,-0.013069444335997105,-0.0064970701932907104,0.005058081354945898
14239152908,-0.319382876157761,-9.71134090423584,-0.478990197181702,-0.012064549140632153,-0.006514958571642637,0.005253623239696026
14244664669,-0.329053670167923,-9.71269130706787,-0.482992976903915,-0.010978396981954575,-0.006436951458454132,0.0053932201117277145
14266936779,-0.321112424135208,-9.7167387008667,-0.479424834251404,-0.010278037749230862,-0.0064263963140547276,0.005170098971575499
14285540342,-0.305912375450134,-9.7113561630249,-0.468691676855087,-0.01011479552835226,-0.006450905464589596,0.00444417167454958
14288987636,-0.326613396406174,-9.71776485443115,-0.470641493797302,-0.010136461816728115,-0.006483862642198801,0.003560236655175686
14428190708,-0.318543881177902,-9.71337890625,-0.467322498559952,-0.007108530029654503,-0.005628582090139389,0.006109925918281078
14561393976,-0.323815792798996,-9.70967102050781,-0.469434022903442,-0.005186527967453003,-0.003636008594185114,0.010096970945596695
14574206590,-0.332293093204498,-9.70628261566162,-0.473535805940628,-0.005643464624881744,-0.0022996801417320967,0.010385917499661446
14577906131,-0.328621596097946,-9.70863723754883,-0.484595268964768,-0.007107799872756004,-0.0013206854928284883,0.010654901154339314
14589365243,-0.319011837244034,-9.7079668045044,-0.477944403886795,-0.00943087786436081,-0.0007114132167771459,0.010417773388326168
14600218534,-0.328013390302658,-9.71710109710694,-0.468315780162811,-0.012074834667146206,-0.00043979508336633444,0.009292679838836193
14629127740,-0.320680379867554,-9.71506500244141,-0.472799092531204,-0.01489929761737585,-0.0021095245610922575,0.005075819790363312
14800189971,-0.31258362531662,-9.71338272094727,-0.465455323457718,-0.008982235565781593,-0.003308267332613468,0.0044564493000507355
14805964708,-0.314331620931625,-9.70290470123291,-0.475651860237122,-0.008417265489697456,-0.0033218825701624155,0.005050254054367542
14819198846,-0.313424080610275,-9.70864486694336,-0.474341779947281,-0.00756370835006237,-0.0036059338599443436,0.005741050932556391
14833487272,-0.319646865129471,-9.71169471740723,-0.465253740549088,-0.006390053778886795,-0.00364977796562016,0.006525705568492413
14844615936,-0.329533278942108,-9.71541213989258,-0.464728057384491,-0.005207669455558062,-0.003270477522164583,0.007407908793538809
14855739116,-0.323260307312012,-9.71372032165527,-0.469472348690033,-0.004659030120819807,-0.002779369242489338,0.008526320569217205
15011793136,-0.31777024269104,-9.7197847366333,-0.467968136072159,-0.007171747740358114,-0.0036276497412472963,0.006646092515438795
15024256229,-0.328961163759232,-9.71404457092285,-0.473329693078995,-0.006968918722122908,-0.0022509547416120768,0.005593593697994947
15040657281,-0.318875163793564,-9.71134567260742,-0.474364697933197,-0.006712515838444233,-0.0016152700409293175,0.0048811426386237144
15055671691,-0.32588055729866,-9.71741199493408,-0.47964671254158,-0.006803215015679598,-0.0020452761091291904,0.004807258024811745
15061325073,-0.316742062568665,-9.70627784729004,-0.472175747156143,-0.007491744589060545,-0.0032759408932179213,0.00520693976432085
15067374467,-0.324373453855515,-9.72013854980469,-0.47163525223732,-0.008603535592556,-0.004732348956167698,0.005718822591006756
15078059673,-0.32304173707962,-9.7255277633667,-0.472957074642181,-0.00975123606622219,-0.00598343787714839,0.00617583841085434
15089047431,-0.309839338064194,-9.71135330200195,-0.472910612821579,-0.010596184059977531,-0.0070463973097503185,0.006618676241487265
15100726366,-0.312792778015137,-9.71303367614746,-0.476217329502106,-0.010810191743075848,-0.00807984359562397,0.007068585604429245
15111291646,-0.324418276548386,-9.72350311279297,-0.466943293809891,-0.010106239467859268,-0.008959018625319004,0.007455386221408844
15213604688,-0.321495324373245,-9.69920444488526,-0.473974913358688,-0.011222041212022305,-0.005615172442048788,0.007813921198248863
15434373140,-0.324452221393585,-9.70561790466309,-0.474774241447449,-0.01058999728411436,-0.004907650873064995,0.006272526457905769
15440694093,-0.321323066949844,-9.70763111114502,-0.478585004806519,-0.01161215640604496,-0.00464578066021204,0.005515797063708305
15451186180,-0.315419316291809,-9.71878910064697,-0.464164316654205,-0.012366538867354393,-0.004391011316329241,0.005181439686566591
15461325168,-0.314520061016083,-9.70458507537842,-0.473887473344803,-0.01250881515443325,-0.004060708452016115,0.0053464509546756744
15467921972,-0.324734747409821,-9.71371746063233,-0.473986059427261,-0.011788586154580116,-0.0037261098623275757,0.006041046231985092
15689292669,-0.308107107877731,-9.71505546569824,-0.474322587251663,-0.008716391399502754,-0.005229108966886997,0.005550989881157875
15702990770,-0.315694600343704,-9.71708583831787,-0.471633315086365,-0.008716507814824581,-0.0051112002693116665,0.007037218660116196
15713200330,-0.314186662435532,-9.71338558197022,-0.46880841255188,-0.007945655845105648,-0.00545963179320097,0.008244295604526997
15723138093,-0.315664827823639,-9.71607875823975,-0.470498025417328,-0.006463006604462862,-0.006188361439853907,0.009040618315339088
15737162351,-0.313745141029358,-9.71134757995605,-0.468031585216522,-0.004735894035547972,-0.007007398642599583,0.009542836807668209
15761120796,-0.318827778100967,-9.71841621398926,-0.483675956726074,-0.00329906796105206,-0.007610567845404148,0.009875443764030933
15766719579,-0.321714699268341,-9.72113418579102,-0.468271493911743,-0.0025494424626231194,-0.00789450854063034,0.009939940646290779
15777723312,-0.310741871595383,-9.71168613433838,-0.475298762321472,-0.002674268325790763,-0.008032015524804592,0.009553545154631138
15795743942,-0.324494659900665,-9.71134185791016,-0.475691586732864,-0.003539910539984703,-0.008191749453544617,0.008763810619711876
15801314115,-0.324029803276062,-9.70965957641602,-0.474550157785416,-0.004806603770703077,-0.008236798457801342,0.0078086466528475285
15820747137,-0.317262589931488,-9.71335887908936,-0.47883540391922,-0.007836771197617054,-0.0069547249004244804,0.006249736528843641
16190488338,-0.316957384347916,-9.70864963531494,-0.469225734472275,-0.013432316482067108,-0.004992776550352573,0.005387584678828716
16200522899,-0.322077035903931,-9.70358276367188,-0.475657820701599,-0.012317139655351639,-0.005085218697786331,0.005503123626112938
16207188844,-0.33014965057373,-9.72452735900879,-0.469119161367416,-0.010354799218475819,-0.0045875306241214275,0.005665019620209932
16301464319,-0.323265850543976,-9.71371746063233,-0.465837121009827,-0.010988762602210045,-0.004662503954023123,0.0060119000263512135
16477977514,-0.327340036630631,-9.70763683319092,-0.475571155548096,-0.0067795151844620705,-0.004980721045285463,0.0027232549618929625
16506840705,-0.324401170015335,-9.71032428741455,-0.481288492679596,-0.0088801896199584,-0.004225292708724737,0.0027808707673102617
16629671573,-0.327160447835922,-9.7049388885498,-0.47746741771698,-0.01711469516158104,-0.002568422816693783,0.00697102677077055
16692810535,-0.329131364822388,-9.7197847366333,-0.474625647068024,-0.01125461608171463,-0.003970140591263771,0.009526990354061127
16918774843,-0.341799676418304,-9.71980571746826,-0.469290643930435,-0.02361728623509407,-0.007953635416924953,0.007022378034889698
16930252790,-0.345809668302536,-9.70968627929688,-0.472890973091125,-0.026124414056539536,-0.0072439080104231834,0.007431366015225649
16940916299,-0.334026902914047,-9.71946048736572,-0.472788274288177,-0.02864931896328926,-0.0068855308927595615,0.007990076206624508
16979121446,-0.345768332481384,-9.7083330154419,-0.465431749820709,-0.030990654602646828,-0.007791711483150721,0.008706183172762394
16990258932,-0.347947716712952,-9.70696926116944,-0.475864112377167,-0.030816059559583664,-0.007099785376340151,0.008439953438937664
16995801210,-0.342858076095581,-9.710693359375,-0.467442482709885,-0.03119390644133091,-0.005757139064371586,0.008313165977597237
17157187223,-0.342785894870758,-9.70191669464112,-0.470381498336792,-0.03410538285970688,-0.002519422909244895,0.007266140542924404
17168243169,-0.348603874444962,-9.70597743988037,-0.468798130750656,-0.03377360478043556,-0.0019633218180388212,0.006700766738504171
17251572608,-0.348743408918381,-9.70967102050781,-0.4749915599823,-0.036758795380592346,-0.0009085177443921566,0.009919307194650173
17433720111,-0.347316205501556,-9.70459842681885,-0.481355935335159,-0.03415663167834282,-0.0023336808662861586,-0.0012967883376404643
17440801620,-0.359016925096512,-9.70393753051758,-0.476205289363861,-0.03515680134296417,-0.0004791218671016395,-0.0009207742405124009
17456810474,-0.345316201448441,-9.71440982818604,-0.466149240732193,-0.03662005066871643,0.0022562656085938215,-0.00024314483744092286
17463253736,-0.34779566526413,-9.71238803863526,-0.456805258989334,-0.038216251879930496,0.004505842924118042,0.0009994904976338148
17467943429,-0.349658131599426,-9.72148609161377,-0.475868850946426,-0.03946162760257721,0.005117747001349926,0.003200470469892025
17484663009,-0.343927919864655,-9.72113800048828,-0.475343585014343,-0.03994692862033844,0.003585312981158495,0.006308524403721094
17516047716,-0.339207112789154,-9.72282123565674,-0.483043491840363,-0.03710121288895607,-0.00959571823477745,0.012229536660015583
17521447181,-0.321279495954514,-9.72282409667969,-0.486131250858307,-0.03528985753655434,-0.013481048867106438,0.011335453949868679
17599284887,-0.331856399774551,-9.68717193603516,-0.469445288181305,-0.015239612199366093,-0.010739019140601158,-0.02095525525510311
17604855060,-0.340258538722992,-9.70472812652588,-0.466200292110443,-0.015337071381509304,-0.004582827445119619,-0.02045959047973156
17616466522,-0.340294241905212,-9.70573043823242,-0.472730815410614,-0.016569403931498528,0.0028233416378498077,-0.015774326398968697
17627770900,-0.340635567903519,-9.7135181427002,-0.454260319471359,-0.018813489004969597,0.009270292706787586,-0.007897645235061646
18371365547,-0.33710053563118,-9.71787738800049,-0.48230192065239,0.03221548721194267,-0.018500693142414093,-0.011723409406840801
18374984025,-0.311536192893982,-9.71683883666992,-0.496014773845673,0.029074814170598984,-0.01646910421550274,-0.011486183851957321
18379143476,-0.31049707531929,-9.7215633392334,-0.501360952854157,0.01967419683933258,-0.014783129096031189,-0.009779158048331738
18385338068,-0.315370559692383,-9.72899150848389,-0.503544449806213,0.00703390734270215,-0.013554739765822887,-0.008039302192628384
18398318290,-0.315262347459793,-9.72595310211182,-0.502661883831024,-0.004433865658938885,-0.012944835238158703,-0.007777356076985598
18408112049,-0.314031660556793,-9.70097160339355,-0.507553279399872,-0.011673087254166603,-0.013066697865724564,-0.009665881283581257
18539753198,-0.237521275877953,-9.68374347686768,-0.495980769395828,0.026544783264398575,0.0016152577009052038,-0.013453874737024307
18830691337,-0.358893007040024,-9.70880317687988,-0.447595179080963,-0.05174607038497925,0.001605577184818685,0.0244643222540617
18836188316,-0.339300930500031,-9.71452808380127,-0.452587902545929,-0.05334116145968437,0.003173407167196274,0.024854613468050957
18846822023,-0.332460939884186,-9.69797039031983,-0.461034148931503,-0.05243513360619545,0.004136393312364817,0.025319624692201614
18858186244,-0.329291880130768,-9.7047233581543,-0.456451386213303,-0.048884205520153046,0.004124276340007782,0.025919267907738686
18868095636,-0.309225708246231,-9.71583557128906,-0.465361177921295,-0.04277722164988518,0.003403456648811698,0.02627776935696602
18875917673,-0.302970468997955,-9.72258186340332,-0.466806292533875,-0.03453335911035538,0.0022947986144572496,0.025923646986484528
18885239124,-0.310126185417175,-9.7178544998169,-0.476967453956604,-0.02479446493089199,0.0006630959105677903,0.024513142183423042
18896742343,-0.286080569028854,-9.71445465087891,-0.479178637266159,-0.014457275159657001,-0.0017304426291957498,0.021857701241970062
18909260749,-0.2793148458004,-9.72188186645508,-0.485028922557831,-0.0044416277669370174,-0.004677597898989916,0.017952943220734596
18924583911,-0.27782267332077,-9.71515274047852,-0.475821137428284,0.004822865128517151,-0.0075892312452197075,0.013088438659906387
18936795949,-0.279999405145645,-9.71885681152344,-0.479215025901794,0.01332014612853527,-0.009901925921440125,0.007961473427712917
18945404767,-0.288224756717682,-9.72222328186035,-0.484667807817459,0.020850883796811104,-0.011324023827910423,0.0034999996423721313
18970253705,-0.291632801294327,-9.71448516845703,-0.475480645895004,0.03042786382138729,-0.011921723373234272,-0.0011233552359044552
19766097068,-0.323026835918427,-9.7278938293457,-0.470134437084198,-0.0038482840172946453,-0.014398532919585705,-0.02123771421611309
20020743608,-0.316658675670624,-9.71438026428223,-0.487468987703323,0.004699951037764549,-0.00946662575006485,-0.005411702208220959
20057965517,-0.309043228626251,-9.68601512908936,-0.489977180957794,0.004640769213438034,-0.008841361850500107,-0.009011426940560341
20062575101,-0.318588495254517,-9.68601894378662,-0.486365020275116,0.0028160803485661745,-0.0071976459585130215,-0.010984071530401707
20085074901,-0.31861275434494,-9.72281551361084,-0.479192435741425,0.00013702416617888957,-0.003928163554519415,-0.011305257678031921
20086725711,-0.329857379198074,-9.7187614440918,-0.474865794181824,-0.00260099396109581,0.0004590940079651773,-0.010170886293053627
20086749076,-0.312271922826767,-9.7244930267334,-0.484284102916718,-0.005083119962364435,0.004027857445180416,-0.007842444814741611
20481605291,-0.333117634057999,-9.70395088195801,-0.477338641881943,-0.010367173701524734,-0.006801302079111338,0.012457038275897503
20636764049,-0.321315348148346,-9.708984375,-0.49951034784317,-0.005331072025001049,-0.010776493698358536,-0.0019583476241678
20650040388,-0.332401603460312,-9.69043350219727,-0.492003291845322,-0.006934501696377993,-0.009635978378355503,-0.007921849377453327
20737155914,-0.314539760351181,-9.6823205947876,-0.464521825313568,-0.0026491384487599134,0.02335253916680813,0.008619933389127254
20887037992,-0.31672677397728,-9.73831939697266,-0.481508195400238,0.03869844600558281,0.015800820663571358,0.014681710861623287
20897883653,-0.319868743419647,-9.72178077697754,-0.490609049797058,0.03947816044092178,0.01308120135217905,0.015235945582389832
20909132719,-0.333068460226059,-9.72044658660889,-0.491916298866272,0.033911705017089844,0.004745921120047569,0.012479087337851524
20921372175,-0.327433615922928,-9.69782733917237,-0.487656235694885,0.02293282561004162,-0.005878021474927664,0.007235361263155937
20925530433,-0.338606387376785,-9.68634510040283,-0.497032284736633,0.008989409543573856,-0.014575652778148651,0.0008612532401457429
20969576358,-0.358542233705521,-9.69517517089844,-0.454433917999268,-0.033670324832201004,0.007775752805173397,-0.014192884787917137
21181623458,-0.306362479925156,-9.81177234649658,-0.554671049118042,0.02999049425125122,-0.040056709200143814,0.11338532716035843
21192142009,-0.298846781253815,-9.7854175567627,-0.602930665016174,0.0028979219496250153,-0.08196711540222168,0.09281425923109055
21224239110,-0.286247462034226,-9.66097640991211,-0.584460914134979,-0.016229242086410522,-0.11748800426721573,0.05232132226228714
21231083631,-0.200493559241295,-9.45414924621582,-0.500966846942902,-0.022891592234373093,-0.13284967839717865,0.0005168229690752923
21236841917,-0.199693396687508,-9.37216281890869,-0.458813369274139,-0.015584067441523075,-0.11600926518440247,-0.04920050501823425
21247722387,-0.295478761196136,-9.46770858764648,-0.424371182918549,0.004366613458842039,-0.06053191050887108,-0.08246321976184845
22176146745,-0.317908018827438,-9.6833438873291,-0.466547220945358,-0.07176124304533005,-0.007733570411801338,0.05564916506409645
22187656879,-0.323008388280869,-9.72886180877686,-0.5030517578125,-0.05086423084139824,0.010779733769595623,0.051047779619693756
22248908758,-0.331857562065125,-9.68362236022949,-0.50756961107254,0.011813587509095669,0.03546955808997154,-0.010694758035242558
22376332759,-0.349336326122284,-9.7933177947998,-0.483936905860901,-0.05162445455789566,-0.009110990911722183,0.03347531333565712
22382159233,-0.322741210460663,-9.76764678955078,-0.498611301183701,-0.05745195969939232,-0.020194046199321747,0.0369371734559536
22393105268,-0.311505436897278,-9.74976539611816,-0.49982750415802,-0.05862954631447792,-0.03499450907111168,0.033805567771196365
22405406713,-0.324614942073822,-9.74267482757569,-0.509711563587189,-0.0537586510181427,-0.050293464213609695,0.024333437904715538
22409063339,-0.326044648885727,-9.70523262023926,-0.504073798656464,-0.04337043687701225,-0.06124166026711464,0.010537424124777317
22414988040,-0.307197451591492,-9.69614219665527,-0.490920573472977,-0.030147630721330643,-0.06387421488761902,-0.0043936134316027164
22426221609,-0.30310383439064,-9.70255088806152,-0.482381939888,-0.01735311560332775,-0.056688640266656876,-0.01699060946702957
22729449510,-0.334166318178177,-9.73614311218262,-0.44529464840889,-0.024749530479311943,-0.05395672097802162,-0.033534545451402664
22737099647,-0.29403617978096,-9.73881912231445,-0.466369181871414,-0.029349062591791153,-0.034314196556806564,-0.020495085045695305
22787314891,-0.319116503000259,-9.65370464324951,-0.518658459186554,0.013490960001945496,-0.006599928252398968,0.011494006030261517
22801588058,-0.296698242425919,-9.6257209777832,-0.488794773817062,0.018015531823039055,-0.006985139101743698,-0.009205514565110207
22809542655,-0.284289211034775,-9.65003299713135,-0.475864470005035,0.01655828393995762,-0.0008080911356955767,-0.028988005593419075
22820672512,-0.292313188314438,-9.69932174682617,-0.460122436285019,0.012015917338430882,0.012522377073764801,-0.04106023535132408
22848286628,-0.32121753692627,-9.76718616485596,-0.443505883216858,0.006341925822198391,0.04066559672355652,-0.03131935000419617
23187427520,-0.30217519402504,-9.58220767974854,-0.464401125907898,0.05759764090180397,-0.0513312928378582,-0.0249762125313282
23248504638,-0.318381369113922,-9.82620048522949,-0.462857484817505,0.009238389320671558,0.07482235878705978,0.04236350208520889
23259511709,-0.345940172672272,-9.78974437713623,-0.466094583272934,0.0017396046314388514,0.0409010648727417,0.05269091948866844
23265496492,-0.338839024305344,-9.71247863769531,-0.465032041072845,-0.004766630940139294,-0.010576348751783371,0.05297868698835373
23348612785,-0.311839401721954,-9.73946952819824,-0.48651510477066,-0.019693035632371902,0.015270903706550598,-0.00427540997043252
23509722471,-0.34457927942276,-9.73379611968994,-0.434014141559601,-0.07661134004592896,-0.036950115114450455,0.04654823616147041
23709570884,-0.325047343969345,-9.74535083770752,-0.355192720890045,-0.03442533314228058,0.0016823969781398773,0.1124928742647171
23721351385,-0.344936281442642,-9.78514671325684,-0.3790003657341,-0.036626286804676056,0.0017901516985148191,0.12380620092153549
23738447904,-0.350313156843185,-9.79897212982178,-0.395487517118454,-0.036980364471673965,-0.0029777390882372856,0.1312858611345291
23748954296,-0.320475816726685,-9.7790355682373,-0.41433373093605,-0.03544991835951805,-0.014679254032671452,0.1325511634349823
23759608030,-0.284607082605362,-9.7193021774292,-0.405634522438049,-0.03249693661928177,-0.032076429575681686,0.12646889686584473
23776118516,-0.282554596662521,-9.70113468170166,-0.365724146366119,-0.027636215090751648,-0.049912165850400925,0.11427953839302063
23787153720,-0.250771850347519,-9.68359851837158,-0.348091006278992,-0.019490346312522888,-0.06088283658027649,0.10006773471832275
23798316240,-0.249281972646713,-9.65862083435059,-0.344360530376434,-0.007092586252838373,-0.05952821299433708,0.08953734487295151
24026118755,-0.323234438896179,-9.81612396240234,-0.437985181808472,0.036266863346099854,0.02518586255609989,0.03267471119761467
24309343338,-0.313531666994095,-9.93662452697754,-0.400693207979202,0.06282489746809006,-0.033323273062705994,-0.018414217978715897
24520097017,-0.244982585310936,-9.66922855377197,-0.576673746109009,0.077959805727005,-0.0018714808393269777,-0.07263538241386414
24525890350,-0.306048512458801,-9.64063358306885,-0.500808775424957,0.07037375122308731,0.03457186371088028,-0.12561872601509094
24531538486,-0.379876583814621,-9.68044376373291,-0.506205677986145,0.056016288697719574,0.05831684172153473,-0.15684524178504944
24536927938,-0.411432296037674,-9.73616695404053,-0.474305033683777,0.038118790835142136,0.06677859276533127,-0.15855124592781067
24549488306,-0.264014452695847,-9.65370845794678,-0.486126273870468,0.017047535628080368,0.062074314802885056,-0.1331101655960083
24559155225,-0.233536243438721,-9.56042289733887,-0.509079337120056,-0.004828199278563261,0.04935934394598007,-0.09103862941265106
24570490121,-0.316530823707581,-9.63388633728027,-0.605034172534943,-0.020600173622369766,0.03715695068240166,-0.04682649299502373
24576064348,-0.333352535963059,-9.84712219238281,-0.649667978286743,-0.02432933822274208,0.03269478678703308,-0.015072419308125973
25138104915,-0.243798434734344,-9.64597511291504,-0.371146529912949,0.10453132539987564,-0.08570877462625504,0.014638272114098072
25216134071,-0.358861446380615,-9.56909370422363,-0.338818490505219,-0.02158861607313156,-0.0420265756547451,0.12148221582174301
25268281221,-0.386127591133118,-9.8560791015625,-0.478490352630615,-0.04799390956759453,0.08787612617015839,0.09133096784353256
25354731321,-0.384260177612305,-9.85711002349854,-0.457154273986816,-0.02058410458266735,0.13718800246715546,0.08236859738826752
25367101669,-0.413239419460297,-9.88912773132324,-0.503804743289948,-0.026109742000699043,0.12991073727607727,0.0885680541396141
25560302257,-0.218837171792984,-9.56901264190674,-0.61621356010437,0.12196040153503418,0.10747039318084717,-0.20678846538066864
25565912485,-0.251559168100357,-9.59212970733643,-0.490098506212235,0.12130597978830338,0.10437102615833282,-0.21369501948356628
25627242803,-0.586003303527832,-9.95199966430664,-0.241716668009758,-0.020776476711034775,0.062434982508420944,0.13552619516849518
25843602895,-0.224050223827362,-9.7708854675293,-0.622760474681854,0.15354225039482117,0.03846246004104614,-0.046413615345954895
26015823125,-0.154014155268669,-9.76733303070069,-0.570098221302033,0.09037791937589645,0.04930955544114113,-0.013898796401917934
26027022838,-0.123672060668468,-9.72345638275147,-0.551794707775116,0.11416740715503693,0.04820527881383896,-0.04475601762533188
26038598299,-0.114830560982227,-9.69275569915772,-0.533690273761749,0.13199661672115326,0.021821055561304092,-0.07104605436325073
26048970699,-0.12778951227665,-9.65093040466309,-0.513997495174408,0.14620888233184814,-0.01239886786788702,-0.08812763541936874
26060881614,-0.167321681976318,-9.60437107086182,-0.496220022439957,0.15878191590309143,-0.03684355318546295,-0.09306414425373077
26065447330,-0.185788586735725,-9.61955451965332,-0.487678438425064,0.16912294924259186,-0.04036063700914383,-0.08578790724277496
26077099323,-0.199647903442383,-9.72279262542725,-0.509985327720642,0.1744057685136795,-0.021764518693089485,-0.06917371600866318
26088096141,-0.212005406618118,-9.75721073150635,-0.520295858383179,0.17190466821193695,0.009571348316967487,-0.04844382777810097
26100465536,-0.240092799067497,-9.74509716033936,-0.498092442750931,0.16098208725452423,0.03799951449036598,-0.029657091945409775
26666658878,-0.454077184200287,-9.65789985656738,-0.468162626028061,-0.09748546779155731,-0.02489336207509041,-0.0415622740983963
26726931571,-0.383599668741226,-9.73813724517822,-0.478654354810715,-0.15199722349643707,0.059884198009967804,-0.010387899354100227
26738106489,-0.350907534360886,-9.66969013214112,-0.419903069734573,-0.14798927307128906,0.05439005047082901,-0.020898878574371338
26749089956,-0.32837525010109,-9.61535453796387,-0.398854970932007,-0.13574863970279694,0.03498207777738571,-0.028426671400666237
26760352134,-0.313497751951218,-9.60414886474609,-0.423292726278305,-0.11492288112640381,0.01387870591133833,-0.0256712157279253
26765731334,-0.342408865690231,-9.63986873626709,-0.459939241409302,-0.08758751302957535,0.0036588034126907587,-0.01037551648914814
26779393196,-0.349909037351608,-9.73363208770752,-0.517532110214233,-0.058418720960617065,0.009397607296705246,0.012519198469817638
26788011550,-0.321682214736938,-9.82264518737793,-0.574270188808441,-0.03333568200469017,0.02522977814078331,0.03287515789270401
26800299882,-0.278836250305176,-9.80981254577637,-0.56660270690918,-0.016421809792518616,0.03763541951775551,0.04019622504711151
26810424566,-0.267521977424622,-9.77476215362549,-0.536038935184479,-0.0073305643163621426,0.03422125428915024,0.029085179790854454
26815752029,-0.270637989044189,-9.76364707946777,-0.519741177558899,-0.0019866188522428274,0.01197852287441492,0.0025128989946097136
26827060937,-0.282845169305801,-9.7309741973877,-0.487419873476028,0.003948792815208435,-0.021503495052456856,-0.029603274539113045
26837959527,-0.294742375612259,-9.69626617431641,-0.449678361415863,0.01210779044777155,-0.053437553346157074,-0.05540092661976814
26849968910,-0.274858385324478,-9.60855770111084,-0.421755373477936,0.021146174520254135,-0.0720253586769104,-0.06589467823505402
26861032485,-0.285829365253448,-9.59099674224854,-0.425240069627762,0.02867724932730198,-0.069852814078331,-0.05764017626643181
26876218318,-0.295776605606079,-9.69788455963135,-0.475101232528687,0.033127736300230026,-0.045909445732831955,-0.033603861927986145
26883536338,-0.327467292547226,-9.81597709655762,-0.507221341133118,0.033913951367139816,-0.008086761459708214,-0.002480881754308939
26893592834,-0.334601789712906,-9.82981014251709,-0.527106523513794,0.030677996575832367,0.027226608246564865,0.024226143956184387
27664731740,-0.13025575876236,-9.71028995513916,-0.547699689865112,0.15242967009544373,-0.025857988744974136,0.02554069086909294
29036638259,-0.276817679405212,-9.71448802947998,-0.472890168428421,0.02662157639861107,-0.0011017078068107367,0.01869472861289978
29158887624,-0.296010941267014,-9.72091674804688,-0.46233144402504,0.01677926816046238,-0.007127837743610144,0.019352778792381287
29169960498,-0.302100300788879,-9.70437908172608,-0.465527594089508,0.011804832145571709,-0.00855318084359169,0.02042754925787449
29180429697,-0.301136642694473,-9.71755218505859,-0.455991357564926,0.00771748460829258,-0.009398594498634338,0.020912058651447296
29409466028,-0.289791375398636,-9.72157573699951,-0.472702890634537,0.015439674258232117,-0.011320929042994976,0.019612416625022888
29420975923,-0.287561595439911,-9.71956920623779,-0.470424294471741,0.015803148970007896,-0.011229610070586205,0.019743239507079124
29431735515,-0.2942975461483,-9.71957111358643,-0.464191555976868,0.016429681330919266,-0.011336845345795155,0.018486490473151207
29486452102,-0.297838926315308,-9.70877075195312,-0.466134548187256,0.015965886414051056,-0.008453711867332458,0.008706868626177311
29497589111,-0.298863887786865,-9.71720981597901,-0.463779419660568,0.014215709641575813,-0.006942531559616327,0.008469462394714355
29931076526,-0.285020053386688,-9.71415710449219,-0.470217704772949,0.014215010218322277,-0.004067851696163416,0.01165013201534748
29939309120,-0.304919928312302,-9.71449375152588,-0.470483809709549,0.01378966961055994,-0.0026718557346612215,0.012216486036777496
29947834730,-0.299846023321152,-9.70639228820801,-0.474066853523254,0.01410952489823103,-0.0015817221719771624,0.0126242870464921
30108691930,-0.305435717105865,-9.71855545043945,-0.46728789806366,0.01178966835141182,-0.007895142771303654,0.012548170983791351
30436553955,-0.303361147642136,-9.7148265838623,-0.477452516555786,0.005437548737972975,-0.0033739206846803427,0.005404870957136154
30538672447,-0.306784689426422,-9.71955490112305,-0.469040632247925,0.0037914838176220655,-0.009147638455033302,0.00768826249986887
30544499874,-0.300539463758469,-9.7047004699707,-0.484343022108078,0.0018333429470658302,-0.009016947820782661,0.008085420355200768
30573214769,-0.301353484392166,-9.70773887634277,-0.480314254760742,0.0008356982725672424,-0.008622471243143082,0.008417565375566483
30927402496,-0.293749839067459,-9.71550083160401,-0.472043931484222,0.010098345577716827,-0.004019451327621937,0.006617990788072348
31089264869,-0.308281391859055,-9.71315097808838,-0.472102493047714,0.009483295492827892,-0.004724860191345215,0.007581354584544897
31089319705,-0.299876391887665,-9.71447944641113,-0.485374301671982,0.007667235564440489,-0.004218169953674078,0.007007821928709745
31103466510,-0.308402091264725,-9.7060489654541,-0.477615684270859,0.005937161855399609,-0.004471858497709036,0.0057031153701245785
31416630268,-0.316473066806793,-9.7175407409668,-0.470717340707779,-0.0005712357233278453,-0.009000832214951515,0.007656860165297985
31440165042,-0.316441655158997,-9.71890163421631,-0.466932117938995,-0.00040092438575811684,-0.007669914048165083,0.00876107532531023
31452705860,-0.306219786405563,-9.71145343780518,-0.474912762641907,-0.0015197524335235357,-0.007743367459625006,0.00917922705411911
31525072336,-0.319742977619171,-9.72125434875488,-0.477456122636795,-0.002670764923095703,-0.002383901970461011,0.003756823018193245
31525086164,-0.317156225442886,-9.7199010848999,-0.474026054143906,-0.002144797006621957,-0.002845972077921033,0.004102205857634544
31697243928,-0.315826565027237,-9.71010589599609,-0.474879950284958,-0.0035782691556960344,-0.006427325773984194,0.007577895186841488
31874373674,-0.322290271520615,-9.72293949127197,-0.469948083162308,-0.006872245576232672,-0.005351058207452297,0.007284006103873253
31924329519,-0.309726268053055,-9.70908737182617,-0.484800696372986,-0.008165850304067135,-0.0059746927581727505,0.008306925185024738
31924377202,-0.316133290529251,-9.71887874603272,-0.47676545381546,-0.008658495731651783,-0.006691511254757643,0.008920292370021343
32915369510,-0.309968680143356,-9.71247577667237,-0.471810251474381,-0.004759929142892361,-0.008601894602179527,0.005285515915602446
33050868034,-0.331325471401215,-9.72261333465576,-0.47133880853653,-0.011580735445022583,-0.01045167911797762,0.012800777330994606
33122302293,-0.321244865655899,-9.72599315643311,-0.463979125022888,-0.01710578054189682,-0.006216967944055796,0.010626367293298244
33133211135,-0.338689386844635,-9.71753978729248,-0.477059334516525,-0.017147423699498177,-0.005414229352027178,0.011165046133100986
33138296127,-0.318340659141541,-9.7091064453125,-0.469711422920227,-0.017300179228186607,-0.005603329744189978,0.011682065203785896
33151832818,-0.333234250545502,-9.71957874298096,-0.468591749668121,-0.017483774572610855,-0.006620436906814575,0.01188607793301344
33166728019,-0.334476739168167,-9.7205924987793,-0.468930095434189,-0.01758970320224762,-0.007882985286414623,0.011684191413223743
33687269687,-0.332488179206848,-9.70371532440186,-0.46705761551857,-0.02104160003364086,0.0008782378281466663,0.011240178719162941
33687308311,-0.339254796504974,-9.72192096710205,-0.471458494663239,-0.019535819068551064,0.0009136713342741132,0.01212069671601057
33910662412,-0.335814863443375,-9.71518421173096,-0.467381864786148,-0.02748214080929756,-0.00572618842124939,0.010218416340649128
34038377761,-0.319437742233276,-9.7188892364502,-0.474888920783997,-0.02414301410317421,-0.004347146488726139,0.008056571707129478
34053018808,-0.325727850198746,-9.7172212600708,-0.46623232960701,-0.021616853773593903,-0.004884668625891209,0.007721800357103348
34699182033,-0.3121557533741,-9.71549129486084,-0.480026751756668,-0.003074988257139921,-0.0028833961114287376,0.007711398880928755
34710240840,-0.310951232910156,-9.71111869812012,-0.473897248506546,-0.003944906406104565,-0.002580170053988695,0.008781337179243565
34722227096,-0.315708518028259,-9.71416568756104,-0.464244782924652,-0.0042797597125172615,-0.0024836494121700525,0.009132998064160347
35049677610,-0.296145856380463,-9.7178544998169,-0.476545989513397,0.0012619823683053255,-0.009268851019442081,0.005715660285204649
35059964656,-0.314750373363495,-9.7185640335083,-0.46364414691925,0.0016675024526193738,-0.010146424174308777,0.004556076135486364
35071193218,-0.313691109418869,-9.71044158935547,-0.477253705263138,0.001633118255995214,-0.010661116801202297,0.004350800067186356
35188329696,-0.308127611875534,-9.71886920928955,-0.476102441549301,-0.0021596536971628666,-0.009052710607647896,0.005926776677370071
35294504165,-0.308707416057587,-9.72056674957276,-0.478250712156296,0.004065279848873615,-0.005686878226697445,0.0025570872239768505
35305831670,-0.304023623466492,-9.71448612213135,-0.482252657413483,0.005117139779031277,-0.006513785570859909,0.00405345531180501
35315507650,-0.303471893072128,-9.71517086029053,-0.467589735984802,0.005902247503399849,-0.0070990086533129215,0.005477197002619505
35321593284,-0.308628112077713,-9.71484375,-0.472985208034515,0.006325472146272659,-0.007481682114303112,0.006325169932097197
35326487541,-0.306793481111527,-9.7077579498291,-0.468758314847946,0.00641933036968112,-0.007658869028091431,0.006685602478682995
35349097728,-0.309687376022339,-9.7084264755249,-0.466119587421417,0.005833897739648819,-0.007017810828983784,0.007466865703463554
35412295818,-0.317126840353012,-9.72091388702393,-0.471122652292252,0.0032929398585110903,-0.006918938364833593,0.012782302685081959
36287224531,-0.321458429098129,-9.71314907073975,-0.470227360725403,0.0028589835856109858,-0.0062881456688046455,0.01029739435762167
36703370809,-0.319096803665161,-9.71011352539062,-0.468651115894318,0.0018347190925851464,-0.006306178402155638,0.0034946815576404333
36727694511,-0.306154370307922,-9.71618938446045,-0.468967288732529,0.0006637486512772739,-0.0053613632917404175,0.004019191954284906
36764628410,-0.312980532646179,-9.70370006561279,-0.472079873085022,-0.0009729799348860979,-0.004670567344874144,0.005450483411550522
36778553962,-0.312894999980927,-9.71079730987549,-0.470394313335419,-0.002352365991100669,-0.004204782657325268,0.007373507600277662
36842531681,-0.323957145214081,-9.70907974243164,-0.500216543674469,0.001842336030676961,-0.004841029644012451,0.006520693190395832
36894466400,-0.314777910709381,-9.70802116394043,-0.522282302379608,0.0018306452548131347,-0.006005723029375076,0.0043555633164942265
36894527912,-0.312021642923355,-9.70973014831543,-0.506008625030518,0.0005038404488004744,-0.006968537345528603,0.0007263903389684856
37148040056,-0.328587919473648,-9.72698020935059,-0.479574769735336,-0.024290475994348526,0.0033936635591089725,0.02795286476612091
37165188550,-0.314652740955353,-9.71715927124023,-0.50405216217041,-0.01901361159980297,0.005797917023301125,0.033581871539354324
37181625127,-0.322718322277069,-9.68917369842529,-0.486938714981079,-0.013467143289744854,0.00429104408249259,0.031456876546144485
37219068765,-0.308737218379974,-9.7192440032959,-0.455436259508133,-0.00893984455615282,0.00043704459676519036,0.02266858145594597
37228879928,-0.318576157093048,-9.73240375518799,-0.455547690391541,-0.005985152442008257,-0.003502396633848548,0.011094046756625175
37240099668,-0.321560949087143,-9.73306751251221,-0.466280043125153,-0.004487180151045322,-0.006498738192021847,0.0017782319337129593
38132444858,-0.305339127779007,-9.70436000823975,-0.491931945085526,-0.018896248191595078,-0.00536919292062521,-0.0019592035096138716
38245519161,-0.357113748788834,-9.70709800720215,-0.464099228382111,-0.02953052520751953,0.002669105539098382,0.004240947775542736
38288236856,-0.330036014318466,-9.72562980651855,-0.476999402046204,-0.037972062826156616,-0.0003594552690628916,0.019324086606502533
38297645568,-0.331572949886322,-9.71179580688477,-0.481923073530197,-0.03801446780562401,-0.0025642388500273228,0.022313253954052925
38307673692,-0.32229220867157,-9.69657230377197,-0.501847147941589,-0.035187963396310806,-0.005174621939659119,0.02129536308348179
38318684101,-0.316006928682327,-9.70837593078613,-0.509914875030518,-0.030168183147907257,-0.0072822244837880135,0.01637101173400879
38333029747,-0.325044840574265,-9.71751022338867,-0.504026114940643,-0.023992810398340225,-0.00782845076173544,0.008140476420521736
38341208457,-0.321241736412048,-9.7306661605835,-0.50212424993515,-0.017789378762245178,-0.006806614343076944,-0.002119584707543254
39095367670,-0.322049498558044,-9.71148490905762,-0.454597741365433,-0.008753608912229538,-0.004177274648100138,0.02268603816628456
39159010410,-0.318637669086456,-9.72563171386719,-0.478540599346161,-0.011429869569838047,-0.0011126573663204908,0.02501683123409748
39201524734,-0.336960136890411,-9.71450328826904,-0.47295269370079,-0.0125060323625803,-0.0012262874515727162,0.023682238534092903
39478143692,-0.297396034002304,-9.72802066802979,-0.457246035337448,0.006194044835865498,-0.006549091078341007,0.01613282971084118
39669313669,-0.300424575805664,-9.72564792633057,-0.458958834409714,0.0022744250018149614,0.006250604055821896,0.020899418741464615
39792186498,-0.313858538866043,-9.72597312927246,-0.465044975280762,0.004904500208795071,-0.017158636823296547,0.03168845549225807
39805543184,-0.307447522878647,-9.71451091766358,-0.454920440912247,0.0034770844504237175,-0.01678518019616604,0.030216949060559273
39847345590,-0.307568311691284,-9.69559097290039,-0.464796096086502,-0.005248944740742445,-0.00541384844109416,0.019287753850221634
39936142444,-0.309171855449677,-9.72091388702393,-0.460130542516708,0.006823507137596607,-0.008615422993898392,0.022413095459342003
39942853927,-0.318174988031387,-9.72868347167969,-0.458561778068542,0.0057269493117928505,-0.011294850148260593,0.02227545529603958
39947596311,-0.308924645185471,-9.71653270721436,-0.45792543888092,0.003987674601376057,-0.013074654154479504,0.02230074070394039
40004518747,-0.308405071496964,-9.71822547912598,-0.45620185136795,-0.0018089767545461655,-0.01627153716981411,0.021696841344237328
40015788793,-0.303684532642365,-9.7226095199585,-0.463255882263184,-0.001653398503549397,-0.01582903042435646,0.02097283862531185
40392794132,-0.31657862663269,-9.71889877319336,-0.470985978841782,0.0023958359379321337,-0.002116261050105095,0.014517427422106266
40406122922,-0.321553856134415,-9.71518707275391,-0.465218991041184,0.0010850244434550405,-0.0023226679768413305,0.013708708807826042
40416091918,-0.313792109489441,-9.71047878265381,-0.457568526268005,-0.0007949353312142193,-0.0030416897498071194,0.013338231481611729
40428366422,-0.306452184915543,-9.71587085723877,-0.465410768985748,-0.0028684274293482304,-0.004207184072583914,0.013514014892280102
40848174333,-0.324093729257584,-9.72294044494629,-0.46784371137619,-0.00746816024184227,0.0006646384135819972,0.01781185157597065
40915553331,-0.314475268125534,-9.71786785125733,-0.467661380767822,-0.005850324407219887,-0.004445443861186504,0.012726934626698494
40976352930,-0.323575854301453,-9.71653652191162,-0.465164422988892,-0.00180782878305763,-0.006390340626239777,0.01664798893034458
40989687681,-0.319776833057404,-9.71686363220215,-0.469354599714279,-0.002703393343836069,-0.007017701864242554,0.015948444604873657
41147221326,-0.314318895339966,-9.71212387084961,-0.474424570798874,-0.010314890183508396,-0.0034067595843225718,0.018363287672400475
41348515510,-0.353972405195236,-9.72196674346924,-0.45545306801796,-0.035367004573345184,-0.013095497153699398,0.01386721059679985
41358678579,-0.348507016897202,-9.71216011047363,-0.466484248638153,-0.03937781602144241,-0.01263285893946886,0.014336067251861095
41476476907,-0.342201322317123,-9.71553134918213,-0.469594299793243,-0.022965671494603157,-0.006034386344254017,0.014720062725245953
41536413908,-0.328069746494293,-9.7135066986084,-0.470551282167435,-0.02272113598883152,-0.003633327316492796,0.014901062473654747
41551826715,-0.320527732372284,-9.71487331390381,-0.458392083644867,-0.021035831421613693,-0.0036471798084676266,0.014681756496429443
41561671257,-0.322324842214584,-9.71721839904785,-0.474850326776505,-0.018953347578644753,-0.003621557494625449,0.013797194696962833
41598944425,-0.320973068475723,-9.71181774139404,-0.465284019708633,-0.010486672632396221,-0.003950858488678932,0.013666150160133839
41614272117,-0.32789146900177,-9.70809936523438,-0.466740697622299,-0.009152205660939217,-0.0025466126389801502,0.014284762553870678
41760607957,-0.310245096683502,-9.71078681945801,-0.468713134527206,-0.0026194772217422724,-0.004429419059306383,0.016117854043841362
41961853265,-0.320764809846878,-9.71923351287842,-0.460990011692047,0.0032699687872081995,-0.007485187612473965,0.015463595278561115
41970940828,-0.314114779233933,-9.71145534515381,-0.467494487762451,0.0012208758853375912,-0.007875021547079086,0.015889249742031097
42082134723,-0.305165886878967,-9.71246528625488,-0.467954725027084,-0.00350333284586668,-0.00869784690439701,0.014846131205558777
42355826854,-0.311345756053925,-9.71652889251709,-0.46554896235466,-0.004963756073266268,-0.006004419643431902,0.01173937227576971
42355847597,-0.310130387544632,-9.7182035446167,-0.474453330039978,-0.0047248657792806625,-0.007396078668534756,0.011951659806072712
42580693960,-0.312153160572052,-9.71484088897705,-0.475151777267456,0.007903284393250942,-0.004184241872280836,0.009859131649136543
42597524881,-0.311165809631348,-9.71619510650635,-0.472327083349228,0.007962494157254696,-0.0035530354361981153,0.00957590900361538
42604627609,-0.300992041826248,-9.71484375,-0.466035038232803,0.006444614380598068,-0.0042015621438622475,0.009097983129322529
42615307569,-0.31553041934967,-9.7131462097168,-0.474870264530182,0.004147727973759174,-0.005681988317519426,0.008632689714431763
42631849527,-0.308668583631516,-9.71045207977295,-0.477479636669159,0.002060932805761695,-0.007234218064695597,0.00840397085994482
42658723115,-0.303319007158279,-9.72496128082276,-0.469329595565796,0.003601251170039177,-0.004399177152663469,0.009274161420762539
42673363208,-0.300721526145935,-9.70877647399902,-0.470749765634537,0.005876732524484396,-0.002647846471518278,0.010241413488984108
42937619209,-0.297471851110458,-9.70504474639893,-0.471982300281525,0.009494432248175144,-0.002521614311262965,0.010586821474134922
42947337865,-0.309022605419159,-9.71719455718994,-0.473877876996994,0.008869631215929985,-0.0027733230963349342,0.011966096237301826
43179365634,-0.309688627719879,-9.70571804046631,-0.472531199455261,0.010135806165635586,-0.005412324797362089,0.004826652351766825
43437900066,-0.313332080841064,-9.72124004364014,-0.473018079996109,0.001855952781625092,-0.00648971414193511,0.0052158343605697155
43453464746,-0.313514590263367,-9.71146965026855,-0.459844440221787,0.0013416054425761104,-0.006701070349663496,0.006614939775317907
43470582962,-0.30982494354248,-9.71686840057373,-0.469076156616211,0.0008331555291078985,-0.006712755654007196,0.008390089496970177
43480483293,-0.317997932434082,-9.71855258941651,-0.466888248920441,0.0002803793177008629,-0.006693072617053986,0.010364060290157795
43570144176,-0.316938787698746,-9.71179962158203,-0.472903430461884,-0.006015454884618521,-0.007822051644325256,0.0084792859852314
43580705642,-0.320017337799072,-9.7131519317627,-0.468880295753479,-0.005829239264130592,-0.008111671544611454,0.007459848187863827
43819288730,-0.320480912923813,-9.7091121673584,-0.469848781824112,-0.004253123886883259,-0.004532886669039726,0.0042586494237184525
43886812210,-0.306377828121185,-9.71417427062988,-0.468783736228943,-0.006370774935930967,-0.0032875400502234697,0.010618624277412891
44385790109,-0.313516974449158,-9.70538711547852,-0.466656029224396,-0.005839978344738483,-0.010837549343705177,0.010403317399322987
44402189731,-0.318827956914902,-9.72023582458496,-0.473172783851624,-0.005730445962399244,-0.011615602299571037,0.011124350130558014
44408029317,-0.317126572132111,-9.70910453796387,-0.469063222408295,-0.005393323954194784,-0.012027532793581486,0.01181457843631506
44431666851,-0.319492012262344,-9.72191524505615,-0.475291341543198,-0.005015627946704626,-0.011639612726867199,0.012198511511087418
44531723022,-0.316411823034287,-9.71213245391846,-0.474601984024048,-0.020597580820322037,-0.012424550950527191,0.007648841943591833
44830987691,-0.314338028430939,-9.71012306213379,-0.470963537693024,-0.007137902081012726,-0.007978499867022038,0.006662476807832718
44914315938,-0.314939498901367,-9.71181106567383,-0.468739032745361,-0.007361878640949726,-0.0038142185658216476,0.006864478811621666
45157073497,-0.31108757853508,-9.70539379119873,-0.46622958779335,-0.0033809873275458813,-0.008131385780870914,0.005789319518953562
45325168132,-0.323616474866867,-9.71685981750488,-0.4761101603508,-0.008815029636025429,-0.006386829074472189,0.008473977446556091
45334385156,-0.317854195833206,-9.71179866790772,-0.467245697975159,-0.008233141154050827,-0.008031412959098816,0.009483790956437588
45555745601,-0.311970382928848,-9.71314907073975,-0.476521104574204,0.0006777351954951882,-0.007988499477505684,0.006926575675606728
45661124706,-0.314898699522018,-9.70335865020752,-0.467876613140106,-0.0035729622468352318,-0.004805529024451971,0.005149751901626587
45779114723,-0.309401243925095,-9.7168550491333,-0.468881756067276,-0.002330578863620758,-0.010238147340714931,0.011333279311656952
45784528017,-0.321274518966675,-9.72698783874512,-0.470453500747681,-0.0046973275020718575,-0.009546658955514431,0.010934610851109028
45796629190,-0.327358990907669,-9.72058963775635,-0.471866190433502,-0.005780640058219433,-0.008549734950065613,0.010097174905240536
45808782339,-0.324809491634369,-9.73272514343262,-0.4725381731987,-0.006051312666386366,-0.00815756805241108,0.00920790247619152
45817456245,-0.31117770075798,-9.70909404754639,-0.478107541799545,-0.00638717133551836,-0.008980982936918736,0.008551165461540222
45830476760,-0.312987983226776,-9.71449279785156,-0.47587114572525,-0.007102285977452993,-0.010764414444565773,0.008093291893601418
46620501518,-0.311688810586929,-9.71178531646729,-0.481969028711319,0.0007468861294910312,-0.008829155005514622,0.008327976800501347
46630719184,-0.296253800392151,-9.71585083007812,-0.466939449310303,0.0002734321460593492,-0.008604660630226135,0.008084626868367195
46820390939,-0.314571112394333,-9.7253007888794,-0.471953302621841,-0.002063637599349022,-0.004632330033928156,0.01115753035992384
46830070972,-0.309298634529114,-9.69931983947754,-0.470690160989761,-0.00021283877140376717,-0.004654186777770519,0.012022442184388638
47018762350,-0.31644132733345,-9.72260570526123,-0.467626571655273,-0.0002062656858470291,-0.008353208191692829,0.0074501619674265385
47210977554,-0.316141217947006,-9.71415328979492,-0.47885850071907,-0.0017018679063767195,-0.003371602389961481,0.00839561503380537
47221825122,-0.309532642364502,-9.7212495803833,-0.466868013143539,-0.0013432193081825972,-0.003986980300396681,0.008597242645919323
47247274398,-0.308970868587494,-9.71583843231201,-0.479951977729797,-0.0012416231911629438,-0.0054918802343308926,0.008289352990686893
47255877256,-0.30231174826622,-9.71145153045654,-0.479021608829498,-0.0009245182736776769,-0.00732914824038744,0.007721616420894861
47265325307,-0.305666774511337,-9.7111177444458,-0.469040602445602,-8.748308755457401e-05,-0.008853263221681118,0.007025748956948519
47270134925,-0.301541715860367,-9.71043586730957,-0.477369785308838,0.0013444958021864295,-0.009479811415076256,0.0062907044775784016
47338003158,-0.302486538887024,-9.71349048614502,-0.472168475389481,0.005713499616831541,-0.0007278635748662055,0.005582293961197138
47347765922,-0.311695396900177,-9.70874404907227,-0.480346977710724,0.004732721019536257,-0.00039735506288707256,0.005812894552946091
47831614494,-0.317857682704926,-9.71989250183105,-0.477501511573792,-0.007913884706795216,-0.007597457617521286,0.007727697025984526
48147830724,-0.326123237609863,-9.70336532592773,-0.472162067890167,-0.009440997615456581,-0.0019158964278176427,0.004650048445910215
48161441564,-0.322814702987671,-9.71585845947266,-0.474603116512299,-0.011626573279500008,-0.002215907908976078,0.004112687427550554
48175859689,-0.325106173753738,-9.71248817443848,-0.470017641782761,-0.013484067283570766,-0.002404979197308421,0.004210093058645725
48181900978,-0.321034967899323,-9.70876216888428,-0.472815841436386,-0.01455708872526884,-0.002543996786698699,0.004943490494042635
48206692457,-0.320106476545334,-9.72225856781006,-0.477892637252808,-0.014707189053297043,-0.0028131117578595877,0.006079962942749262
48214544296,-0.311465620994568,-9.71213150024414,-0.480918496847153,-0.013980203308165073,-0.0033712584991008043,0.007162345107644796
48222178936,-0.31046462059021,-9.70742988586426,-0.465721219778061,-0.01242793444544077,-0.004266651812940836,0.007688612211495638
49570043325,-0.300072193145752,-9.7205638885498,-0.470007359981537,0.0032601822167634964,-0.002552419202402234,0.0041495431214571
49779343605,-0.307087689638138,-9.7080659866333,-0.480713218450546,0.005619903095066547,-0.004936011508107185,0.003452396485954523
49896006584,-0.310568928718567,-9.71653175354004,-0.469087958335876,0.006819459609687328,-0.0010412581032142043,0.005577077157795429
49907700777,-0.302837729454041,-9.71989154815674,-0.475342839956284,0.006242355331778526,-0.00274060876108706,0.005760311149060726
50006478786,-0.314707577228546,-9.71518230438233,-0.472941070795059,0.0007013964932411909,-0.007906699553132057,0.007608312182128429
50195042133,-0.31809538602829,-9.71110725402832,-0.483049303293228,0.004261895082890987,-0.009829900227487087,0.005126188974827528
50408025741,-0.308266192674637,-9.72495746612549,-0.47859200835228,0.004734888207167387,-0.005780092440545559,0.00803335104137659
50418348789,-0.307448744773865,-9.71347999572754,-0.472754061222076,0.004450112581253052,-0.0064376238733530045,0.007845713756978512
50427885293,-0.30524742603302,-9.72090911865234,-0.473187386989594,0.004458139184862375,-0.007585803046822548,0.007457679603248835
50583623170,-0.299466282129288,-9.70572280883789,-0.471187114715576,0.0009987741941586137,-0.007028326392173767,0.007326470222324133
50978693723,-0.311626791954041,-9.70910358428955,-0.466487497091293,0.00016223531565628946,-0.005008515901863575,0.003452894277870655
51107815980,-0.327113837003708,-9.71044921875,-0.477228701114655,-0.0019676752854138613,-0.007592868525534868,0.004993888083845377
51107840776,-0.325909107923508,-9.71483707427979,-0.476177394390106,-0.001392581732943654,-0.006269543897360563,0.005908522289246321
51112056970,-0.309297353029251,-9.70742130279541,-0.470644325017929,-0.0016053610015660524,-0.005410468205809593,0.006010395009070635
51195575952,-0.311271339654923,-9.72191047668457,-0.476385831832886,-0.010779885575175285,-0.004499140195548534,0.010254031047224998
51212788820,-0.313764899969101,-9.70572376251221,-0.47284060716629,-0.009019154123961926,-0.004473773762583733,0.009781861677765846
51224094390,-0.322845876216888,-9.7205753326416,-0.472481697797775,-0.006474015302956104,-0.004335750360041857,0.009084594435989857
51235168457,-0.314918130636215,-9.72562408447266,-0.479421436786652,-0.003986452706158161,-0.004372595809400082,0.008324116468429565
51241321563,-0.307245552539825,-9.71483707427979,-0.469277143478394,-0.0023884729016572237,-0.004993037786334753,0.00759627390652895
51823024749,-0.324329018592834,-9.71552276611328,-0.467561930418015,-0.012002306990325451,-0.007128792814910412,0.008055278100073338
51830992937,-0.321519643068314,-9.72090816497803,-0.478114753961563,-0.010533326305449009,-0.007357207592576742,0.009099816903471947
51919285297,-0.3286472260952,-9.70944118499756,-0.474052459001541,-0.010283883661031723,-0.006597789470106363,0.005170364398509264
51979331493,-0.313610434532166,-9.70674419403076,-0.470136016607285,-0.01240611169487238,-0.006092375610023737,0.005838033743202686
52164225578,-0.321207791566849,-9.71112251281738,-0.474741250276566,-0.013640270568430424,-0.005473697558045387,0.005544518586248159
52245484113,-0.31721967458725,-9.7236213684082,-0.468737125396729,-0.00970167014747858,-0.004397362936288118,0.005418548826128244
52340265512,-0.333473980426788,-9.71550464630127,-0.477783113718033,-0.009880192577838898,-0.00803426280617714,0.010332212783396244
52350634336,-0.31657549738884,-9.71450042724609,-0.475520551204681,-0.010458027012646198,-0.008450808003544807,0.010707269422709942
52356459617,-0.323888629674912,-9.71079730987549,-0.474239230155945,-0.011747697368264198,-0.008934445679187775,0.010378332808613777
52367757320,-0.33509287238121,-9.71518039703369,-0.475418388843536,-0.013170700520277023,-0.009048779495060444,0.009346654638648033
52378169536,-0.324478596448898,-9.71483993530273,-0.466218113899231,-0.014297532849013805,-0.008617926388978958,0.00796951912343502
52390122413,-0.319959938526154,-9.71484088897705,-0.475172847509384,-0.01508395466953516,-0.0078084710985422134,0.006812321953475475
52403659582,-0.314063370227814,-9.72058010101319,-0.472052305936813,-0.015427651815116405,-0.007001976016908884,0.0063225566409528255
52810954332,-0.332026124000549,-9.7148494720459,-0.466624051332474,-0.01231423020362854,-0.006736007519066334,0.0038016103208065033
52829883575,-0.322590827941895,-9.71517562866211,-0.475979328155518,-0.012554454617202282,-0.005993665661662817,0.0034735407680273056
52833824634,-0.331420838832855,-9.71450710296631,-0.479194164276123,-0.013302152045071125,-0.005253848619759083,0.003707397263497114
53302872419,-0.330651015043259,-9.71416854858398,-0.4730044901371,-0.019731616601347923,-0.004702008794993162,0.006567885633558035
53322181224,-0.326846659183502,-9.72023487091065,-0.469959765672684,-0.022396354004740715,-0.005652947351336479,0.006879901047796011
53390758752,-0.338428407907486,-9.71112442016602,-0.472447276115417,-0.0192645825445652,-0.00895332545042038,0.005131165497004986
53396218061,-0.341099560260773,-9.70741939544678,-0.476018935441971,-0.021432314068078995,-0.0066079795360565186,0.0050408439710736275
53412802457,-0.327660948038101,-9.71551418304444,-0.47342836856842,-0.02380530722439289,-0.0044923448003828526,0.005373734515160322
53486471414,-0.333343386650085,-9.70606994628906,-0.475671142339706,-0.019213564693927765,-0.011298085562884808,0.004102377220988274
53501553535,-0.333443641662598,-9.70809268951416,-0.479318678379059,-0.019211268052458763,-0.010516460053622723,0.0049814507365226746
53507775068,-0.331122845411301,-9.71012687683105,-0.469883590936661,-0.019369231536984444,-0.008473806083202362,0.006096932105720043
54219964742,-0.323692232370377,-9.71583461761475,-0.475934982299805,-0.012857976369559765,-0.001986915012821555,0.0042386604472994804
54230814456,-0.320937484502792,-9.71247863769531,-0.473714858293533,-0.011752774007618427,-0.0018309494480490685,0.005728204734623432
54237327814,-0.322228342294693,-9.72057247161865,-0.470223844051361,-0.010852602310478687,-0.001960235880687833,0.007167010568082333
54419196128,-0.327970266342163,-9.71889305114746,-0.471944689750671,-0.013161825947463512,-0.008287619799375534,0.005975162144750357
54494316339,-0.317785948514938,-9.72123718261719,-0.477366149425507,-0.012020341120660305,-0.0035877195186913013,0.005853261332958937
54503194093,-0.324437856674194,-9.70471286773682,-0.481842458248138,-0.01094899419695139,-0.002623423933982849,0.004609501920640469
54786657571,-0.319350749254227,-9.71181106567383,-0.469370931386948,-0.009433215484023094,-0.00775527348741889,0.005519711412489414
54797148704,-0.326659768819809,-9.72227096557617,-0.470257073640823,-0.009919983334839344,-0.005957137793302536,0.005684492643922567
54808092117,-0.32146093249321,-9.70943450927734,-0.46989843249321,-0.010576335713267326,-0.004549787379801273,0.006580013316124678
54832064867,-0.311708390712738,-9.71955680847168,-0.47944775223732,-0.011654756031930447,-0.004443943500518799,0.009288256987929344
54841211795,-0.315276473760605,-9.71315670013428,-0.470465153455734,-0.011472638696432114,-0.00543506583198905,0.010174154303967953
54923128366,-0.308366358280182,-9.71787452697754,-0.469497680664062,-0.005296104587614536,-0.005323830991983414,0.005773706361651421
55169021129,-0.318986117839813,-9.71552085876465,-0.468063592910767,-0.004897330887615681,-0.002871525939553976,0.005899955052882433
55180362939,-0.302723258733749,-9.71821212768555,-0.468253165483475,-0.004940683953464031,-0.0027467713225632906,0.005319688934832811
55185363531,-0.322163194417954,-9.72496891021729,-0.474981039762497,-0.0050020236521959305,-0.003336209338158369,0.005371859297156334
55257774829,-0.310634970664978,-9.70908737182617,-0.480409234762192,0.001318329363130033,-0.008568230085074902,0.008792376145720482
55269575119,-0.309593379497528,-9.72158050537109,-0.475658625364304,0.0015256217448040843,-0.006404220592230558,0.007974458858370781
55281903982,-0.309680134057999,-9.7158374786377,-0.472738355398178,0.0009770221076905727,-0.004673325922340155,0.0068369279615581036
55573635339,-0.319173246622086,-9.71394157409668,-0.471723824739456,-0.0052397409453988075,-0.008074009791016579,0.0032595577649772167
56008949518,-0.322931736707687,-9.71427249908447,-0.483080327510834,-0.005511901807039976,-0.0035279083531349897,0.007298265118151903
56073681831,-0.326473325490952,-9.71562671661377,-0.477198660373688,-0.01143750362098217,-0.006808143574744463,0.003336432622745633
57105129480,-0.326399594545364,-9.71258544921875,-0.476407498121262,-0.011428967118263245,-0.009103015065193176,0.003995956387370825
57113775968,-0.319154143333435,-9.71630477905273,-0.473185241222382,-0.010550814680755138,-0.007488165516406298,0.008532028645277023
57113811731,-0.317945390939713,-9.7196683883667,-0.478164047002792,-0.010642127133905888,-0.0067504090256989,0.008454343304038048
57128603935,-0.32705944776535,-9.70820903778076,-0.468626111745834,-0.010850106365978718,-0.006423274986445904,0.007799786515533924
57128646850,-0.315513610839844,-9.70077705383301,-0.472650200128555,-0.010935602709650993,-0.006444124039262533,0.006962507031857967
57133688926,-0.319997817277908,-9.71900177001953,-0.474603235721588,-0.01079664658755064,-0.0063367546536028385,0.006394823547452688
57133710861,-0.319208681583405,-9.70854949951172,-0.463638067245483,-0.010390357114374638,-0.005708550103008747,0.006370129995048046
57139353275,-0.319328308105469,-9.71292304992676,-0.475039809942246,-0.009736703708767891,-0.004699979443103075,0.006933252792805433
57139379262,-0.31833228468895,-9.70988273620605,-0.476461321115494,-0.00897093303501606,-0.0037296845111995935,0.00791630707681179
57175808668,-0.314355313777924,-9.71291255950928,-0.476558029651642,-0.00840856321156025,-0.0032011086586862803,0.008769560605287552
58146630525,-0.316708594560623,-9.70944786071777,-0.468073725700378,-0.01183493621647358,-0.00887096207588911,0.00742843234911561
58157865524,-0.327340573072434,-9.71179866790772,-0.473473221063614,-0.012628627941012383,-0.00878925807774067,0.007162096910178661
58284858942,-0.334902703762054,-9.70877075195312,-0.479560017585754,-0.02725810930132866,-0.009457937441766262,0.009979131631553173
58296251535,-0.344849556684494,-9.71517848968506,-0.480640202760696,-0.028848864138126373,-0.007209462113678455,0.008617215789854527
58307098150,-0.330742359161377,-9.70843887329102,-0.474318295717239,-0.029298929497599602,-0.004998479969799519,0.006787590682506561
58319127321,-0.34447968006134,-9.71653652191162,-0.475842446088791,-0.028820056468248367,-0.003455773228779435,0.004948482383042574
58329878807,-0.346993803977966,-9.72364139556885,-0.468405485153198,-0.02794611267745495,-0.002877993043512106,0.003590387525036931
58338798522,-0.335538417100906,-9.70876407623291,-0.480096191167831,-0.027326636016368866,-0.0033687958493828773,0.0031133736483752728
58352241277,-0.341954231262207,-9.71047306060791,-0.476427614688873,-0.027371397241950035,-0.004706548061221838,0.00353734428063035
58358436107,-0.344363033771515,-9.72396850585938,-0.471245497465134,-0.027997560799121857,-0.006263981573283672,0.0044515845365822315
59178326606,-0.320083796977997,-9.71010208129883,-0.470523059368134,-0.016658321022987366,-0.0010874338913708925,0.010706278495490551
59328866720,-0.321072906255722,-9.7131519317627,-0.472019135951996,-0.009743517264723778,-0.004521957132965326,0.011477747932076454
59339525461,-0.311279565095902,-9.708740234375,-0.477714598178864,-0.006858854088932276,-0.005122126080095768,0.010720751248300076
59344618797,-0.315398842096329,-9.70402145385742,-0.476308643817902,-0.004164425656199455,-0.0059410082176327705,0.009520581923425198
59355524539,-0.319359540939331,-9.6983003616333,-0.472693502902985,-0.0024222400970757008,-0.006194565910845995,0.00809172261506319
59374837160,-0.320091962814331,-9.71955299377441,-0.46853506565094,-0.0018736618803814054,-0.005307452753186226,0.0067473058588802814
59433829069,-0.313554376363754,-9.70978260040283,-0.466029107570648,-0.006295239087194204,-0.0011995439417660236,0.010315382853150368
59679356336,-0.307112276554108,-9.71427154541016,-0.463259309530258,0.0070050847716629505,-0.00813350547105074,0.010132801719009876
59688896656,-0.292220056056976,-9.71596050262451,-0.465818107128143,0.005677998997271061,-0.007165299728512764,0.00978406798094511
59700284004,-0.290584892034531,-9.71527481079102,-0.47930571436882,0.005669610574841499,-0.006107641384005547,0.010435312055051327
59705919742,-0.296079397201538,-9.72135543823242,-0.467220097780228,0.007119440007954836,-0.005381212569773197,0.011590808629989624
59716812372,-0.307555586099625,-9.72168922424316,-0.475963890552521,0.009726610034704208,-0.0053984313271939754,0.012440751306712627
59727361917,-0.301239937543869,-9.71933269500733,-0.470981180667877,0.012542628683149815,-0.006352124270051718,0.012465602718293667
59739663839,-0.300221741199493,-9.72168922424316,-0.478019803762436,0.014409373514354229,-0.008093698881566525,0.011631614528596401
59753816843,-0.296344637870789,-9.71023559570312,-0.467754065990448,0.01476763840764761,-0.01012561097741127,0.010225350968539715
59762561321,-0.299929708242416,-9.71933841705322,-0.467567890882492,0.013931858353316784,-0.0117601053789258,0.008739208802580833
60107426404,-0.304370760917664,-9.71664524078369,-0.468694746494293,0.010312739759683609,0.00044954544864594936,0.0045869238674640656
60111619234,-0.293185144662857,-9.72000122070312,-0.477312445640564,0.009326772764325142,0.0006069124792702496,0.005485868081450462
60116887807,-0.295956134796143,-9.71460342407227,-0.468660056591034,0.009470024146139622,-0.0008404695545323193,0.00649910606443882
61001969337,-0.3126300573349,-9.7119140625,-0.477646768093109,0.005821665748953819,-0.004800143651664257,0.012168933637440205
61001992464,-0.309707343578339,-9.71731281280518,-0.470771163702011,0.0051526958122849464,-0.005068994592875242,0.012136334553360939
61005514383,-0.298404157161713,-9.70987319946289,-0.472710430622101,0.0041466085240244865,-0.005178756080567837,0.011209677904844284
61016440629,-0.313778728246689,-9.70919990539551,-0.480150192975998,0.0031889709644019604,-0.005253068637102842,0.009748648852109909
61027806043,-0.29751193523407,-9.71527576446533,-0.474351555109024,0.0027217380702495575,-0.005250782240182161,0.008167358115315437
61137766361,-0.317163825035095,-9.70819187164307,-0.474786072969437,0.007264005485922098,-0.008404088206589222,0.007415718398988247
61150002479,-0.299762666225433,-9.70852947235108,-0.472658187150955,0.006484347395598888,-0.008266924880445004,0.00770825007930398
61154743671,-0.304388582706451,-9.71425437927246,-0.481954872608185,0.005063388030976057,-0.0075571429915726185,0.007539705373346806
61600440502,-0.310765534639359,-9.70719432830811,-0.469986438751221,-0.0011292092967778444,0.0004247107426635921,0.005791966337710619
61667306423,-0.306310534477234,-9.70684432983398,-0.472453325986862,-0.0003812223148997873,-0.008115891367197037,0.00288463500328362
61679058313,-0.315015107393265,-9.70920753479004,-0.478687614202499,-0.0028751578647643328,-0.008906985633075237,0.002043491695076227
61689295768,-0.313504725694656,-9.71898937225342,-0.475274175405502,-0.005004794802516699,-0.008560736663639545,0.0020405463874340057
61697572469,-0.318785816431046,-9.7139482498169,-0.469313979148865,-0.006037134677171707,-0.007255629636347294,0.002752333413809538
61705924510,-0.315813004970551,-9.7267541885376,-0.474644929170609,-0.005961758084595203,-0.0058265202678740025,0.003907650243490934
61717909812,-0.318628907203674,-9.71664333343506,-0.47092017531395,-0.005295003764331341,-0.005199405364692211,0.005276043433696032
61728141546,-0.313314825296402,-9.70549392700195,-0.475080639123917,-0.0046165394596755505,-0.005780510604381561,0.006625307258218527
61739096879,-0.32204657793045,-9.71764183044434,-0.47686892747879,-0.004268032032996416,-0.0071194833144545555,0.007685843389481306
61750198841,-0.311554372310638,-9.71596431732178,-0.469030618667603,-0.004327176604419947,-0.008324181661009789,0.008232366293668747
61756073951,-0.315953940153122,-9.70887279510498,-0.475979506969452,-0.004665685817599297,-0.008831861428916454,0.008243557997047901
61768448829,-0.31448769569397,-9.71462345123291,-0.466897487640381,-0.005007481202483177,-0.008573408238589764,0.007953144609928131
61778002023,-0.321659803390503,-9.70617771148682,-0.474660694599152,-0.005135052837431431,-0.007697084918618202,0.007696077693253756
63107003927,-0.307922005653381,-9.70413398742676,-0.474906116724014,0.004002999980002642,-0.004622382111847401,0.006336414720863104
63118298053,-0.300522416830063,-9.71123313903809,-0.471802979707718,0.0033400924876332283,-0.0041709356009960175,0.006223127245903015
63129673480,-0.299617975950241,-9.71088409423828,-0.479957103729248,0.00265590101480484,-0.0037973967846482992,0.006104303523898125
63140279531,-0.311327427625656,-9.70921325683594,-0.473160535097122,0.0026246062479913235,-0.0034704955760389566,0.00602415157482028
63153137207,-0.302378863096237,-9.70955657958984,-0.466330498456955,0.0034516858868300915,-0.003156630787998438,0.005969456396996975
63161770343,-0.302130967378616,-9.69706153869629,-0.469792395830154,0.004774588625878096,-0.0027854968793690205,0.006090686656534672
63167922496,-0.302995324134827,-9.70211505889893,-0.477588653564453,0.006128610111773014,-0.002116861753165722,0.006627341732382774
63178427934,-0.313865125179291,-9.70819854736328,-0.468457728624344,0.007208206225186586,-0.0008853041799739003,0.00753374770283699
63183968305,-0.305270105600357,-9.70752811431885,-0.470039755105972,0.007728016469627619,0.0007973079336807132,0.008486825041472912
63196348428,-0.308479726314545,-9.71359157562256,-0.475828766822815,0.007461950648576021,0.0023404662497341633,0.00922971498221159
63206531047,-0.315024107694626,-9.71695518493652,-0.48486390709877,0.006454920396208763,0.0030214423313736916,0.009577485732734203
63217338800,-0.30406266450882,-9.71426010131836,-0.481304854154587,0.0049774618819355965,0.0023641667794436216,0.009206599555909634
63228375196,-0.314468622207642,-9.71291637420654,-0.474445044994354,0.0033802681136876345,0.0003905541088897735,0.007848851382732391
63234915971,-0.312711179256439,-9.71425914764404,-0.479243129491806,0.001985481707379222,-0.0023326692171394825,0.00572742335498333
63244157791,-0.29561111330986,-9.71020889282227,-0.478046327829361,0.0010020311456173658,-0.00497096823528409,0.0035229988861829042
64455175876,-0.309299677610397,-9.72169494628906,-0.472849875688553,-0.0034915448632091284,-0.007667073979973793,0.00014744176587555557
64466439723,-0.307275861501694,-9.71730995178223,-0.469949036836624,-0.0032714777626097202,-0.0063793291337788105,0.0009325152495875955
64477494716,-0.307023197412491,-9.70920372009277,-0.480533540248871,-0.00238754041492939,-0.0056109740398824215,0.0025521456263959408
64488518714,-0.316985756158829,-9.71190452575684,-0.477752894163132,-0.0009626614046283066,-0.005557023920118809,0.004458929877728224
64567555427,-0.326833516359329,-9.71596240997315,-0.47343921661377,-0.00256802374497056,-0.0030518341809511185,0.0022224183194339275
64579258441,-0.323322504758835,-9.71360015869141,-0.475087434053421,-0.00496862456202507,-0.004361502826213837,0.0029775698203593493
64597493886,-0.309976786375046,-9.71933746337891,-0.475393891334534,-0.0073227547109127045,-0.005960454698652029,0.003938996698707342
64610806941,-0.312536388635635,-9.71663093566895,-0.480864107608795,-0.00914680864661932,-0.007449159864336252,0.004843256436288357
64616775751,-0.323606669902802,-9.71663475036621,-0.480128318071365,-0.009838787838816643,-0.008598831482231617,0.00539026502519846
64627741575,-0.309131562709808,-9.72438716888428,-0.477568328380585,-0.009234003722667694,-0.009377552196383476,0.005320788361132145
64638802766,-0.319506257772446,-9.71192169189453,-0.472959131002426,-0.007758553139865398,-0.009897911921143532,0.004649828188121319
64649720668,-0.316935658454895,-9.70043087005615,-0.478393316268921,-0.006044711451977491,-0.010177957825362682,0.0037528565153479576
64655766963,-0.320914089679718,-9.71934223175049,-0.466666787862778,-0.004674380645155907,-0.009901575744152069,0.0031423692125827074
65487900733,-0.31338095664978,-9.71763229370117,-0.479316025972366,-0.0007026075618341565,-0.006041618529707193,0.008062717504799366
65500729322,-0.310426622629166,-9.71394062042237,-0.473333537578583,0.00015275251644197851,-0.007275650277733803,0.00909307599067688
65510102510,-0.315221846103668,-9.71122550964355,-0.480479091405869,0.0005456266226246953,-0.007531722541898489,0.00964053999632597
65515984058,-0.313099503517151,-9.70583724975586,-0.472052752971649,0.00046475647832266986,-0.007011523470282555,0.009349887259304523
65526782751,-0.327956646680832,-9.71360206604004,-0.478931248188019,-8.952242933446541e-05,-0.005996073596179485,0.008265047334134579
65538021326,-0.312881052494049,-9.70988845825195,-0.473023861646652,-0.001192510244436562,-0.004738278221338987,0.0067820423282682896
65550964117,-0.315441280603409,-9.71393299102783,-0.47894549369812,-0.0028160326182842255,-0.003566567087545991,0.005383677780628204
65560798883,-0.322189480066299,-9.7203369140625,-0.477891266345978,-0.004602161701768637,-0.0028525167144834995,0.004381938371807337
65571204423,-0.307145655155182,-9.70719242095947,-0.472614496946335,-0.006049539428204298,-0.002878648228943348,0.0038385086227208376
65577078342,-0.306513518095017,-9.716628074646,-0.478475600481033,-0.006730286870151758,-0.003630161052569747,0.003690232988446951
65906690120,-0.315646439790726,-9.71629810333252,-0.473402768373489,-0.002277923049405217,-0.0020069503225386143,0.007559731137007475
65917923927,-0.318619936704636,-9.71393299102783,-0.478509992361069,-0.0017289255047217011,-0.0024391666520386934,0.010027695447206497
65928832054,-0.309699505567551,-9.70112228393555,-0.47025465965271,-0.001630825106985867,-0.0038132304325699806,0.011683904565870762
65934394359,-0.313319355249405,-9.71799087524414,-0.472330361604691,-0.0020148339681327343,-0.005354262888431549,0.01199117861688137
65945479154,-0.318946838378906,-9.7206916809082,-0.471001952886581,-0.0025879840832203627,-0.00629856763407588,0.011132748797535896
65956592798,-0.311224192380905,-9.71393299102783,-0.470449537038803,-0.0030752101447433233,-0.00658753514289856,0.009774847887456417
67068752527,-0.302281677722931,-9.71561622619629,-0.471686959266663,-0.004467607010155916,-0.00641271099448204,0.007516828365623951
67073686599,-0.313129186630249,-9.7075309753418,-0.474628388881683,-0.004738669842481613,-0.006602393928915262,0.007739858701825142
67084927558,-0.312857419252396,-9.71190738677979,-0.478762567043304,-0.003992507234215736,-0.006464334670454264,0.008245245553553104
67162607192,-0.320559054613113,-9.72677898406983,-0.47012922167778,-0.0009387147729285061,-0.0058313170447945595,0.00568325025960803
67168155670,-0.322527438402176,-9.71495246887207,-0.47457692027092,-0.002281095599755645,-0.005096164997667074,0.006711011752486229
67179251194,-0.317580908536911,-9.70144557952881,-0.478652805089951,-0.003778212470933795,-0.004880673252046108,0.008130868896842003
67190116405,-0.31479948759079,-9.71224689483643,-0.474776417016983,-0.00533473351970315,-0.005243654828518629,0.009220917709171772
67223716735,-0.321074903011322,-9.7169942855835,-0.461615473031998,-0.005908401217311621,-0.004015385173261166,0.006370080169290304
67235136270,-0.309658735990524,-9.70313453674316,-0.473803192377091,-0.004980728030204773,-0.0038970259483903646,0.005749025382101536
67797097921,-0.324251085519791,-9.71766090393066,-0.473928868770599,-0.00800534337759018,-0.008557192049920559,0.006786351557821035
67807370901,-0.31704393029213,-9.70550441741944,-0.467325925827026,-0.0076689342968165874,-0.007197520229965448,0.007037449162453413
