Timestamp,IMU_Raw_x,IMU_Raw_y,IMU_Raw_z,IMU_Linear_Acc_X,IMU_Linear_Acc_Y,IMU_Linear_Acc_Z
1149715423,-0.330276370048523,-9.70853900909424,-0.471814662218094,-0.0024742260575294495,0.0015689930878579617,0.0033197621814906597
1167288780,-0.315506011247635,-9.70684242248535,-0.479010581970215,-0.0034336785320192575,-0.0001255936367670074,0.004577162675559521
1174196481,-0.328042417764664,-9.7082109451294,-0.467270255088806,-0.003641986520960927,-0.00038321566535159945,0.0049135563895106316
1189620733,-0.308870851993561,-9.71427154541016,-0.4690862596035,-0.003306013997644186,0.0008282146300189197,0.004340537823736668
1201219797,-0.323955684900284,-9.7169828414917,-0.471108227968216,-0.0026376857422292233,0.0028599293436855078,0.0032914578914642334
1211433887,-0.32577183842659,-9.71225833892822,-0.46711066365242,-0.0017870042938739061,0.0046935114078223705,0.0023703223560005426
1229690074,-0.313346683979034,-9.71495246887207,-0.470211952924728,-0.0010267050238326192,0.005538905505090952,0.00197311001829803
1234146356,-0.317178040742874,-9.71392631530762,-0.480288028717041,-0.0005816137418150902,0.005223129875957966,0.002123827813193202
1245109319,-0.317230850458145,-9.70819664001465,-0.477231949567795,-0.0003366867022123188,0.004119327757507563,0.002423106227070093
1256607294,-0.31524384021759,-9.70684146881104,-0.47569864988327,-1.5128364793781657e-05,0.002900197636336088,0.002271314151585102
1533927679,-0.322230726480484,-9.72405052185059,-0.473094254732132,-0.002376212039962411,0.004635715391486883,-0.0011892482871189713
1545364618,-0.319760292768478,-9.71088981628418,-0.473482429981232,-0.0016844742931425571,0.004028703551739454,-0.0009389951592311263
1583916425,-0.309606730937958,-9.72303485870362,-0.472182959318161,-0.00283217104151845,0.0003930946404580027,0.0003103870840277523
1595016717,-0.319977790117264,-9.70682907104492,-0.481300622224808,-0.004363581072539091,0.0008369633578695357,9.597770258551463e-05
1606118440,-0.318884521722794,-9.70719623565674,-0.462009608745575,-0.004793690517544746,0.0013922258513048291,-0.00033543817698955536
1611701488,-0.322232484817505,-9.71527862548828,-0.472411662340164,-0.003872690722346306,0.0019796984270215034,-0.0006971639231778681
1631790876,-0.316592127084732,-9.72372913360596,-0.467285424470902,-0.0021728798747062683,0.0026232649106532335,-0.0006010073702782393
1639343500,-0.313566744327545,-9.71257400512695,-0.476560145616531,-0.00044541258830577135,0.0030191310215741396,0.00013040156045462936
1645033836,-0.321509569883347,-9.71224784851074,-0.47635692358017,0.0008904378628358245,0.002797966357320547,0.001203039544634521
1656150102,-0.318369209766388,-9.71495056152344,-0.467588275671005,0.0017207086784765124,0.00204063905403018,0.002047888236120343
1673506498,-0.32390946149826,-9.71257209777832,-0.479770839214325,0.0021820261608809233,0.0008505894802510738,0.002002875553444028
1683896541,-0.311967730522156,-9.70615291595459,-0.480543226003647,0.002329795155674219,0.001194584183394909,0.0012371205957606435
1746791601,-0.321621477603912,-9.70787525177002,-0.463445395231247,-0.0004725395410787314,0.007120606489479542,-0.0033206527587026358
1756156682,-0.341835558414459,-9.71192455291748,-0.463998317718506,-0.0023199485149234533,0.007326813880354166,-0.0024160929024219513
1767628669,-0.318576723337174,-9.71022129058838,-0.471318274736404,-0.003951559774577618,0.006957229692488909,-0.0004937474150210619
1777815341,-0.315970897674561,-9.71022415161133,-0.472581118345261,-0.005420816596597433,0.0062622083351016045,0.00208459934219718
1783977508,-0.325365364551544,-9.70244598388672,-0.479093849658966,-0.0064690071158111095,0.005564854014664888,0.004434085916727781
1797713041,-0.323447793722153,-9.70988464355469,-0.473532736301422,-0.006672796793282032,0.0052197715267539024,0.005613568238914013
1800517082,-0.318605870008469,-9.71224403381348,-0.475650787353516,-0.006023097317665815,0.005430379882454872,0.00517966179177165
1823429346,-0.325560957193375,-9.70244407653809,-0.479375094175339,-0.0037664268165826797,0.006407013162970543,0.0010651538614183664
2006146907,-0.317579567432404,-9.7139310836792,-0.472714811563492,-0.0030434264335781336,0.0033114899415522814,-0.0009312060428783298
2011882305,-0.331956058740616,-9.71459865570069,-0.474675834178925,-0.0019737393595278263,0.0018749716691672802,-0.001224252162501216
2022748947,-0.319023817777634,-9.71157836914062,-0.462862104177475,-0.0014616616535931826,0.0005841663223691285,-0.0011661185417324305
2035212278,-0.312618225812912,-9.70381546020508,-0.468911916017532,-0.0016622444381937385,-8.784101373748854e-05,-0.0006576688028872013
2050648927,-0.316076040267944,-9.72202301025391,-0.484766662120819,-0.002171031665056944,0.00013852928532287478,0.00033880898263305426
2067270278,-0.333784013986588,-9.71191501617432,-0.472702503204346,-0.002098816679790616,0.0020003963727504015,0.0019728168845176697
2095094203,-0.317289590835571,-9.70953273773194,-0.47850888967514,-0.004053047392517328,0.002084610052406788,1.7198372006532736e-05
2108078241,-0.308257430791855,-9.7102108001709,-0.475053161382675,-0.004872655496001244,0.0025389972142875195,-0.00033963200985454023
2117443799,-0.33066937327385,-9.70784854888916,-0.476420074701309,-0.004538359120488167,0.0035042292438447475,-0.0003174399316776544
2161602497,-0.323671281337738,-9.71190643310547,-0.472099006175995,-0.0005398672074079514,0.004919936414808035,-0.00137754762545228
2348139762,-0.313020646572113,-9.70042133331299,-0.479811936616898,-0.00036207385710440576,0.003610775573179126,0.0026980729307979345
2348184585,-0.315515428781509,-9.71526432037354,-0.478576481342316,-0.00025041477056220174,0.0031438868027180433,0.003474249504506588
2356925487,-0.324902087450028,-9.71628856658936,-0.473086535930634,-0.00013340532314032316,0.0030328966677188873,0.0031667151488363743
2372682094,-0.309503555297852,-9.70245170593262,-0.470165073871613,0.00048168771900236607,0.003429778851568699,-3.768002352444455e-05
2383804082,-0.326404571533203,-9.71662998199463,-0.479034572839737,0.0008793057641014457,0.0035178763791918755,-0.0015020701102912426
2394934177,-0.322023689746857,-9.723388671875,-0.470251679420471,0.0012985655339434743,0.0035827746614813805,-0.0021730440203100443
2566365718,-0.326482802629471,-9.71055603027344,-0.477347999811173,-0.002021257532760501,0.0038950422313064337,-0.0017887948779389262
2578172683,-0.313989222049713,-9.71359729766846,-0.469659179449081,-0.0029652260709553957,0.004649024922400713,-0.0016249604523181915
2589370250,-0.308941572904587,-9.72033405303955,-0.478070169687271,-0.003825845429673791,0.004722492769360542,-0.0012033082311972976
2612092494,-0.325158506631851,-9.70988559722901,-0.471701204776764,-0.0028972954023629427,0.0029893312603235245,-0.0002944115549325943
2644936800,-0.328277289867401,-9.71629428863526,-0.471043318510056,0.0005354844615794718,0.0014050236204639077,0.000495708838570863
2656683683,-0.319937407970428,-9.71325969696045,-0.474015027284622,0.00048356526531279087,0.002467502374202013,0.0005186714697629213
2675302028,-0.318051695823669,-9.71832656860352,-0.467000305652618,-0.0008251834660768509,0.004257131367921829,0.0005228168447501957
2695673704,-0.327890783548355,-9.70483589172363,-0.464882642030716,-0.0005975612439215183,0.002955949865281582,0.000995043432340026
2706048727,-0.321993082761765,-9.71022415161133,-0.469952464103699,3.5542176192393526e-05,0.001600265852175653,0.0017353928415104747
2733721494,-0.317589938640594,-9.70785140991211,-0.48330482840538,-0.0021320851519703865,0.0026340375188738108,0.004574398044496775
2744881153,-0.319103866815567,-9.70211887359619,-0.470697700977325,-0.0038377048913389444,0.004527342040091753,0.004314701072871685
2758016586,-0.322343081235886,-9.70212459564209,-0.471621662378311,-0.004922145511955023,0.006277496460825205,0.0029941487591713667
2767083883,-0.331431895494461,-9.70618534088135,-0.466476649045944,-0.005039583891630173,0.007789808325469494,0.001150839845649898
2773359298,-0.32110321521759,-9.70514869689941,-0.483735501766205,-0.0045382119715213776,0.009134207852184772,-0.00036851971526630223
2783716917,-0.320473402738571,-9.70616149902344,-0.47779643535614,-0.004033119883388281,0.01023649051785469,-0.0011598247801885009
2794847011,-0.317739129066467,-9.7031307220459,-0.474664837121964,-0.0037838206626474857,0.01095117162913084,-0.0014907135628163815
2805494070,-0.323423802852631,-9.70819282531738,-0.47130087018013,-0.0036120559088885784,0.011233627796173096,-0.0017603617161512375
2818766355,-0.319607734680176,-9.71663856506348,-0.47027251124382,-0.003293336369097233,0.011094528250396252,-0.001991619123145938
2822685003,-0.312792122364044,-9.6953649520874,-0.475107222795487,-0.0027695298194885254,0.010505257174372673,-0.0019333487143740058
2833732128,-0.322018414735794,-9.70009422302246,-0.473661214113236,-0.002030471572652459,0.009655001573264599,-0.0014590666396543384
2844799757,-0.320059955120087,-9.70886707305908,-0.473013609647751,-0.0011124822776764631,0.009099043905735016,-0.0007363026961684227
3094897031,-0.311332046985626,-9.71189880371094,-0.476462870836258,-0.0030248789116740227,0.003918750211596489,0.0009111789404414594
3106101274,-0.334893524646759,-9.7105655670166,-0.473227918148041,-0.002452392131090164,0.004091545939445496,-6.491837325484084e-07
3133755445,-0.316037088632584,-9.70649242401123,-0.482562869787216,0.0008602986927144229,0.004832589998841286,-0.0032612027134746313
3145107984,-0.324329793453217,-9.71630382537842,-0.476229131221771,0.0010070402640849352,0.004681946709752083,-0.003895942121744156
3155975103,-0.325360804796219,-9.71393585205078,-0.476993560791016,0.0009290178422816098,0.004475248046219349,-0.004530236590653658
3168866157,-0.323575735092163,-9.70953559875488,-0.478444993495941,0.000522891350556165,0.004215886816382408,-0.005093439016491175
3178508758,-0.332330107688904,-9.71799087524414,-0.469809859991074,-0.0004317704006098211,0.003851556684821844,-0.005366763565689325
3183753013,-0.326728671789169,-9.72169494628906,-0.475394368171692,-0.002014010678976774,0.0033433588687330484,-0.005147710908204317
3195110559,-0.316913843154907,-9.71224784851074,-0.473358571529388,-0.00403626961633563,0.0025731115601956844,-0.004351017996668816
3205966472,-0.312601864337921,-9.70077037811279,-0.468369007110596,-0.00588548369705677,0.001576838782057166,-0.003091522492468357
3216974496,-0.322323173284531,-9.70955753326416,-0.47016179561615,-0.006691316608339548,0.0008710685069672763,-0.0015879690181463957
3222563266,-0.313900977373123,-9.71259021759033,-0.468518108129501,-0.005963741336017847,0.0010994356125593185,-1.043358861352317e-05
3233870029,-0.328507542610168,-9.71730613708496,-0.472763359546661,-0.0040051997639238834,0.0022987262345850468,0.0014928652672097087
3256204366,-0.307122975587845,-9.71223545074463,-0.479423850774765,9.85654114629142e-05,0.004622678738087416,0.0031574484892189503
3269898891,-0.32345986366272,-9.70280265808105,-0.470849543809891,0.0011667021317407489,0.0045343684032559395,0.00261949235573411
3306465864,-0.316119700670242,-9.70346069335938,-0.481045663356781,0.0012651350116357207,0.003453257493674755,-0.0027929360512644053
3322514295,-0.325397223234177,-9.706862449646,-0.46943399310112,0.00036281999200582504,0.0038660194259136915,-0.004551630467176437
3328089475,-0.327314108610153,-9.70751476287842,-0.477646887302399,-0.000631081813480705,0.004641191102564335,-0.0056984000839293
3334061384,-0.319743633270264,-9.70751762390137,-0.474465221166611,-0.0016249250620603561,0.005726886447519064,-0.005916979163885117
3350419282,-0.321020007133484,-9.71293258666992,-0.465179890394211,-0.0026153158396482468,0.006891858298331499,-0.0051756384782493114
3361575841,-0.327166438102722,-9.70785140991211,-0.481699168682098,-0.003458373248577118,0.007771127857267857,-0.0037040309980511665
3561721086,-0.322820037603378,-9.71797752380371,-0.477997392416,-0.0009724869159981608,-0.002724692225456238,-0.0005127012263983488
3575407505,-0.326505422592163,-9.71225166320801,-0.471496105194092,-0.0013374002883210778,-0.0030801044777035713,-0.0010427390225231647
3583702564,-0.321467280387878,-9.72202777862549,-0.477368295192719,-0.0016890288097783923,-0.0026107551530003548,-0.0018109254306182265
3594971418,-0.322550714015961,-9.71931838989258,-0.478195637464523,-0.002121749334037304,-0.0017720125615596771,-0.002526378957554698
3594998836,-0.318979233503342,-9.71866130828858,-0.473639726638794,-0.0026471407618373632,-0.0011136640096083283,-0.0029935247730463743
3667068243,-0.317712813615799,-9.70987129211426,-0.481090426445007,-0.005140956956893206,0.0022817945573478937,0.002063486259430647
3683695077,-0.322581142187119,-9.71292495727539,-0.467489093542099,-0.0035037915222346783,0.0020659174770116806,0.0024596729781478643
3688388586,-0.316169708967209,-9.70381832122803,-0.467585265636444,-0.001820508623495698,0.0020508915185928345,0.0021809544414281845
3694800138,-0.330226212739945,-9.72271251678467,-0.468573957681656,-0.0005547402543015778,0.0024914504028856754,0.001580956857651472
3834028005,-0.331246942281723,-9.72168445587158,-0.474407196044922,0.001731804688461125,-0.0005093826330266893,0.0017444266704842448
3844653606,-0.323882639408112,-9.70954608917237,-0.470715343952179,0.0017048006411641836,-7.3693631748028565e-06,-0.0003820605925284326
3855801343,-0.328033357858658,-9.71494293212891,-0.476234078407288,0.0003537996963132173,0.0006946727517060935,-0.002385933417826891
3866919755,-0.320323646068573,-9.71697616577148,-0.467693865299225,-0.002009602729231119,0.0012793587520718575,-0.003572035115212202
3894679069,-0.330496817827225,-9.713942527771,-0.468541264533997,-0.007141205947846174,0.0018423909787088633,-0.0010766828199848533
3905962467,-0.320450812578201,-9.70887851715088,-0.471795678138733,-0.006741540040820837,0.0017820335924625397,0.0005590739892795682
3917241096,-0.327428042888641,-9.7054967880249,-0.480572879314423,-0.00579575402662158,0.0017270598327741027,0.0019031380070373416
3922504901,-0.324800789356232,-9.70954895019531,-0.474874317646027,-0.004902477376163006,0.002004099078476429,0.0025797307025641203
3933732986,-0.320601940155029,-9.71866798400879,-0.468594491481781,-0.004420852288603783,0.002819937653839588,0.0023417354095727205
4105794906,-0.327813357114792,-9.71731853485108,-0.46993288397789,0.0009318558149971068,0.00434510875493288,-7.40676186978817e-05
4116857767,-0.323714047670364,-9.71224308013916,-0.473040610551834,0.0010274914093315601,0.002673341426998377,0.0016237754607573152
4127956151,-0.317574769258499,-9.69975471496582,-0.47679203748703,0.0006111161201260984,0.0015971445245668292,0.003087845165282488
4133720874,-0.312530845403671,-9.70482063293457,-0.473656237125397,-0.0003426788898650557,0.001461489824578166,0.0038514307234436274
4250376701,-0.315434813499451,-9.71155738830566,-0.479393631219864,-0.0012638779589906335,0.0025164580438286066,0.0035987908486276865
4289193630,-0.316292822360992,-9.70684719085694,-0.466065764427185,-0.001472585485316813,0.004519911482930183,0.002416156465187669
4332563161,-0.312233954668045,-9.7102165222168,-0.474448412656784,-0.0007319410215131938,0.006687528919428587,0.0008342349901795387
4515859603,-0.320984482765198,-9.70154285430908,-0.48078441619873,-0.0015337122604250908,0.001356704393401742,0.002412692876532674
4527081489,-0.318731218576431,-9.71235466003418,-0.478614300489426,-0.0019997195340692997,0.00047970778541639447,0.0016863419441506267
4565822601,-0.326386839151383,-9.70831394195557,-0.467574656009674,-0.0035744740162044764,0.002247787546366453,-0.0034292282070964575
4612091779,-0.311081767082214,-9.70998859405518,-0.476655095815659,-0.0032130328472703695,0.006128265056759119,-0.0005898586823605001
4621714115,-0.312870860099792,-9.71235752105713,-0.476314783096313,-0.0004739154246635735,0.0076260315254330635,0.0017046516295522451
4632501125,-0.32223653793335,-9.70831203460694,-0.473171234130859,0.0011374562745913863,0.0076608057133853436,0.0017069786554202437
4654815912,-0.317282885313034,-9.71439075469971,-0.473960667848587,0.0016751553630456328,0.00607953080907464,-0.00026794784935191274
4666280984,-0.324587047100067,-9.71539497375488,-0.471304088830948,0.0006487953942269087,0.005443876143544912,-0.00023353808501269668
4693662881,-0.32336413860321,-9.71066951751709,-0.475455224514008,-0.00180836021900177,0.0024142481852322817,0.001886795274913311
4705097436,-0.32211509346962,-9.70527458190918,-0.468591868877411,-0.0025777320843189955,0.0012424191227182746,0.00241453992202878
4715825080,-0.326606452465057,-9.71710586547852,-0.460312992334366,-0.003252234309911728,0.000673362344969064,0.002474788576364517
4721248149,-0.314897149801254,-9.71303462982178,-0.467581897974014,-0.0037596547044813633,0.0009566779481247067,0.0024315447080880404
4732614994,-0.322642773389816,-9.70324325561523,-0.477406531572342,-0.003999091684818268,0.001856485498137772,0.002782540861517191
4743845224,-0.317569226026535,-9.70896816253662,-0.479996681213379,-0.003826185828074813,0.0030293038580566645,0.003459329716861248
4755465507,-0.328358918428421,-9.70797729492188,-0.474555730819702,-0.003245261264964938,0.004330812953412533,0.0037854427937418222
4921694755,-0.317706972360611,-9.70088195800781,-0.472653895616531,-0.002403911901637912,0.002845783717930317,-0.0024827627930790186
4944190502,-0.323898792266846,-9.70427417755127,-0.46710479259491,-0.0026950552128255367,0.004456383641809225,-0.002043189015239477
4996831893,-0.316849946975708,-9.71944332122803,-0.475583553314209,-0.0012928647920489311,0.004621000029146671,0.003860997734591365
5024077177,-0.324348032474518,-9.70931148529053,-0.476244360208511,-0.0008145408355630934,0.0003737267688848078,0.003860672004520893
5038147211,-0.324112683534622,-9.71270751953125,-0.465380966663361,2.9346305382205173e-05,-0.0016774671385064721,0.001388202072121203
5043551445,-0.319216102361679,-9.71641445159912,-0.476736068725586,-0.0001920390350278467,-0.0012750097084790468,0.00016034062718972564
5055577278,-0.314108699560165,-9.71741485595703,-0.476975649595261,-0.0008580097346566617,-0.00034159939968958497,-0.0004109505971428007
5063604593,-0.310111820697784,-9.71706962585449,-0.478372633457184,-0.0014829603023827076,0.0005709744291380048,-0.0004374846466816962
5071976184,-0.315013587474823,-9.70122241973877,-0.476610153913498,-0.001429640338756144,0.001100962283089757,-0.00041736382991075516
5082587003,-0.311686366796494,-9.71878433227539,-0.466672599315643,-0.0003587262472137809,0.0013480025809258223,-0.0006986209191381931
5093619346,-0.315647006034851,-9.70694732666016,-0.477972716093063,0.0015260938089340925,0.0016732969088479877,-0.001172402873635292
5282622337,-0.321306020021439,-9.71573734283447,-0.46656009554863,-0.0012604998191818595,0.001930289901793003,0.00029110279865562916
5293591976,-0.324301838874817,-9.70493507385254,-0.473491489887238,-0.0034811890218406916,0.0017108520260080695,0.0005892941844649613
5343729496,-0.319910705089569,-9.71708106994629,-0.466242700815201,-0.004090664908289909,0.0010095492471009493,0.0014679043088108301
5366247892,-0.319917321205139,-9.71708106994629,-0.473960399627686,-0.002828139578923583,-0.0012680271174758673,0.0005423652473837137
5373051643,-0.318837970495224,-9.71169281005859,-0.466460078954697,-0.0027286994736641645,-0.001497142482548952,0.00027906353352591395
5382668018,-0.319216132164001,-9.71167278289795,-0.480164736509323,-0.0025492801796644926,-0.0006293898331932724,0.00017534155631437898
5393588304,-0.331254124641418,-9.71438026428223,-0.478452950716019,-0.0021870825439691544,0.0009103136253543198,0.0001750865048961714
5615455389,-0.319925397634506,-9.70796394348145,-0.476663142442703,-0.0008001195383258164,0.0006316857179626822,-0.0008373825112357736
5654300928,-0.319808959960938,-9.70594692230225,-0.472191780805588,-0.002258394844830036,0.00353891309350729,-0.001239689881913364
5682077884,-0.330386698246002,-9.71405696868897,-0.46470695734024,-0.0023251217789947987,0.006680367514491081,0.0002035199577221647
5704780340,-0.324074983596802,-9.70864486694336,-0.472498863935471,-0.0020334667060524225,0.005348390433937311,0.0020770402625203133
5727106571,-0.302969723939896,-9.71606254577637,-0.473352611064911,-0.004084222484380007,0.005207303445786238,0.003485005581751466
5754363775,-0.31618145108223,-9.7164134979248,-0.474107950925827,-0.0022976973559707403,0.006639575120061636,0.002313600853085518
5765579700,-0.321367830038071,-9.71470737457276,-0.473797172307968,-0.000514577142894268,0.005949117708951235,0.0014039991656318307
5776503324,-0.316138923168182,-9.71033382415772,-0.468920081853867,0.0008059952524490654,0.004688657820224762,0.0005725941737182438
5789651155,-0.322094261646271,-9.71303272247315,-0.473151922225952,0.0014329900732263923,0.003246437991037965,3.453407407505438e-05
5804795742,-0.307928740978241,-9.69852256774902,-0.469683200120926,0.0009657327900640666,0.0014462221879512072,0.00031674292404204607
5998910665,-0.324798554182053,-9.71067714691162,-0.47557544708252,0.0016893284628167748,0.0038893676828593016,0.004450172185897827
6004484415,-0.325289607048035,-9.7282304763794,-0.471714407205582,0.002122957957908511,0.004454932641237974,0.00460759038105607
6021038532,-0.315736562013626,-9.71709156036377,-0.469374507665634,0.0018232048023492098,0.004802596755325794,0.0035648993216454983
6059292078,-0.327760517597198,-9.71168994903565,-0.471323251724243,-0.004130011890083551,0.0005564891616813838,-0.000607625232078135
6065841674,-0.332340747117996,-9.72148132324219,-0.467498362064362,-0.005061679519712925,0.0007248775218613446,-0.000875069759786129
6126942634,-0.327746391296387,-9.71236419677734,-0.471145927906036,-0.002765987766906619,0.0005806717672385275,0.0004764718469232321
6320849895,-0.32120817899704,-9.71437740325928,-0.474605530500412,-0.0031197085045278072,0.0013105677207931876,0.003496959339827299
6332511663,-0.31578129529953,-9.72214317321777,-0.470035761594772,-0.0016976614715531468,0.0018887532642111182,0.003926306962966919
6343457698,-0.33112359046936,-9.71100330352783,-0.473292261362076,-0.0004753209068439901,0.001625373144634068,0.004272353369742632
6355269432,-0.313112139701843,-9.70290946960449,-0.474180936813354,0.00014928411110304296,0.0007804239285178483,0.004297336097806692
6370847702,-0.325014591217041,-9.71573925018311,-0.467821270227432,-0.00048386200796812773,0.00036239466862753034,0.0029699208680540323
6415350675,-0.318795800209045,-9.71404361724854,-0.476940155029297,-0.002301671076565981,0.0037904204800724983,0.000723344215657562
6598557472,-0.317920058965683,-9.7083044052124,-0.476531505584717,-0.0037750734481960535,0.0005128844059072435,0.0012088193325325847
6604397296,-0.323959499597549,-9.71470642089844,-0.479474484920502,-0.003237192053347826,0.0014380073407664895,0.0005989578203298151
6615329027,-0.319803297519684,-9.70933246612549,-0.463116317987442,-0.001975534250959754,0.0026726853102445602,-0.0003224962274543941
6637457132,-0.327632188796997,-9.70965480804444,-0.473370164632797,-0.00022406443895306438,0.0046823639422655106,-0.0017269221134483814
6666018247,-0.316907286643982,-9.7059440612793,-0.477902859449387,-0.00274166208691895,0.004310276359319687,-0.0010527820559218526
6671250581,-0.329039245843887,-9.71911144256592,-0.468500703573227,-0.0035263453610241413,0.003993134945631027,-0.0006171477725729346
6688429832,-0.314424306154251,-9.70325374603272,-0.468103349208832,-0.0038255106192082167,0.00386349530890584,-0.00018062042363453656
6710652112,-0.318623244762421,-9.70729160308838,-0.473457902669907,-0.0020578387193381786,0.0043585957027971745,0.0008155414834618568
6755782604,-0.313751608133316,-9.71067714691162,-0.474786192178726,-0.00019900596817024052,0.005382607690989971,-0.0018652351573109627
6806555032,-0.309273898601532,-9.71270179748535,-0.469103097915649,-0.0016289768973365426,0.0024845649022608995,0.0019399792654439807
6821942090,-0.324559658765793,-9.71236419677734,-0.467285990715027,6.617147846554872e-06,0.0005151453078724444,0.003697696141898632
6833395004,-0.32133561372757,-9.71674728393555,-0.471570253372192,0.0017915619537234306,0.0011057431111112237,0.002942168852314353
6844559669,-0.322885364294052,-9.72113800048828,-0.474816888570786,0.003200606442987919,0.002188972430303693,0.0015687077539041638
6855117082,-0.31801426410675,-9.7096529006958,-0.47375077009201,0.003480031620711088,0.0029740361496806145,0.0002723787911236286
6872007369,-0.315847992897034,-9.71303272247315,-0.473598301410675,0.0025813081301748753,0.003012990579009056,-0.0005583897582255304
6882633447,-0.321869134902954,-9.71910953521729,-0.467696219682694,0.0010961948428303003,0.002452479675412178,-0.0008552324143238366
6894649744,-0.309916466474533,-9.71371746063233,-0.470817446708679,-0.0002217907749582082,0.0016705701127648354,-0.0006378904799930751
7083889484,-0.32072851061821,-9.71202373504639,-0.474539399147034,-0.0022500285413116217,0.005145659204572439,0.0007748482166789472
7105216503,-0.327113419771195,-9.72348403930664,-0.4797083735466,-0.0015655069146305323,0.003672846360132098,-0.00041630712803453207
7116186141,-0.326581239700317,-9.70730972290039,-0.467670857906342,-0.0006363215507008135,0.003183606779202819,-0.00026593025540933013
7137319087,-0.315110146999359,-9.71033191680908,-0.46995598077774,-0.0007646303274668753,0.0024467390030622482,0.0002256399457110092
7144335985,-0.317209303379059,-9.71776008605957,-0.475509107112885,-0.0020635067485272884,0.002214225009083748,0.0001849542313721031
7205141305,-0.330950319766998,-9.71878051757812,-0.471471101045609,-0.0018485994078218937,0.0030321034137159586,0.0016903846990317106
7216177940,-0.322451174259186,-9.71301364898682,-0.475797384977341,-0.001174893812276423,0.0031127098482102156,0.0023715246934443712
7222377300,-0.326128453016281,-9.72450542449951,-0.478841632604599,-0.0013880666811019182,0.0025491025298833847,0.002627474721521139
7238341808,-0.327687859535217,-9.71269416809082,-0.479508846998215,-0.002501314040273428,0.00138060690369457,0.0022076955065131187
7266244173,-0.317408204078674,-9.70831203460694,-0.473409533500671,-0.007518668193370104,-0.001882200944237411,-0.0018054863903671503
7444004297,-0.323205441236496,-9.71538734436035,-0.473687320947647,0.003393524792045355,0.002933148993179202,0.0025693890638649464
7455137491,-0.315349280834198,-9.71810054779053,-0.475490689277649,0.005264025181531906,0.004360344726592302,0.0019214823842048645
7494112253,-0.31479948759079,-9.71607685089112,-0.468492358922958,0.002557547762989998,0.0033392091281712055,0.001231814967468381
7516744852,-0.319429099559784,-9.71035099029541,-0.461291611194611,-0.0005295416922308505,0.0016104733804240823,0.0031723924912512302
7527752876,-0.308808326721191,-9.70290184020996,-0.477904915809631,-0.0010966419940814376,0.0008937970269471407,0.004043275490403175
7533336162,-0.314941078424454,-9.7174129486084,-0.484281927347183,-0.0009138619643636048,0.0007719699642620981,0.004567999392747879
7722172975,-0.310555845499039,-9.71032524108887,-0.474733799695969,-0.0010580189991742373,-0.002407247433438897,-0.0010333952959626913
7739004135,-0.32330334186554,-9.71235942840576,-0.476736396551132,-0.0009757456136867404,-0.0020387773402035236,-0.0011438180226832628
7743913173,-0.318924605846405,-9.72078132629395,-0.479412347078323,-0.0004068709968123585,-0.0013793742982670665,-0.0014702251646667719
7832954406,-0.319916903972626,-9.71572971343994,-0.471593707799912,0.0026822504587471485,0.0024213457945734262,-0.0028228347655385733
7866518020,-0.328170567750931,-9.706618309021,-0.479152053594589,0.0018173863645642996,0.0011971897911280394,-0.0033008267637342215
7872380256,-0.323031634092331,-9.71033382415772,-0.474502623081207,0.0009415479726158082,0.0023534258361905813,-0.002765202894806862
7883588075,-0.324884951114655,-9.71270942687988,-0.467758566141129,-0.0002298901235917583,0.0036328730639070272,-0.0023144937586039305
7894120216,-0.33237037062645,-9.71708869934082,-0.469403386116028,-0.0017363436054438353,0.004674205556511879,-0.0019011258846148849
7905117034,-0.313107162714005,-9.71741199493408,-0.481351137161255,-0.003448454663157463,0.005119319539517164,-0.0012938732979819179
7916572570,-0.314032703638077,-9.72046375274658,-0.468220293521881,-0.004951150622218847,0.00468563474714756,-0.0004987773136235774
7943909406,-0.320094972848892,-9.71066474914551,-0.482337355613708,-0.004950490314513445,0.0014777242904528975,0.000631263421382755
8132883310,-0.310519814491272,-9.70629119873047,-0.465170800685883,-0.002910303184762597,-0.0004829837125726044,-0.003123257774859667
8143930673,-0.319458872079849,-9.71876525878906,-0.478625357151031,-0.0026494211051613092,9.792830678634346e-05,-0.0038208893965929747
8227289438,-0.322246193885803,-9.71068000793457,-0.468503922224045,-0.0011135125532746315,-0.0009069376974366605,0.0025193134788423777
8244666099,-0.32419952750206,-9.70460510253906,-0.472766906023026,-0.004291005432605743,-3.954573185183108e-05,0.002337903715670109
8255393743,-0.325997263193131,-9.71505451202393,-0.475618928670883,-0.005157525651156902,0.0014587098266929388,0.0013874165015295148
8266072750,-0.312805980443955,-9.7197790145874,-0.472802251577377,-0.0053680757991969585,0.0031773163937032223,0.0002873045450542122
8327324867,-0.32237720489502,-9.72170352935791,-0.475154489278793,0.00419590063393116,0.002671758411452174,-0.0004131580935791135
8350984096,-0.311183899641037,-9.71561908721924,-0.476698517799377,0.0044002835638821125,0.0018638077890500426,-0.0016000687610358
8361201763,-0.324948310852051,-9.71022701263428,-0.475675135850906,0.0021836538799107075,0.001411045785062015,-0.0023494695778936148
8387280941,-0.311162143945694,-9.71290493011475,-0.477227807044983,-0.0028212303295731544,0.0016512800939381123,-0.003232068382203579
8416177034,-0.319116503000259,-9.72371864318848,-0.471025764942169,0.001078033703379333,0.005432253237813711,-0.0030589629895985126
8421989440,-0.311110347509384,-9.71427440643311,-0.46872216463089,0.0023753310088068247,0.005789746530354023,-0.00281143793836236
8432972908,-0.326049506664276,-9.71394443511963,-0.47616121172905,0.0030237440951168537,0.004978590179234743,-0.0023392874281853437
8466750860,-0.330237567424774,-9.70853900909424,-0.473158627748489,0.0001698328705970198,0.00020438387582544237,-0.0005337566835805774
8472162485,-0.317418068647385,-9.71529197692871,-0.470569252967834,-0.0025951119605451822,0.0003571010020095855,-0.0008378440979868174
8494060516,-0.31191286444664,-9.71831893920898,-0.479085385799408,-0.0074411132372915745,0.003189787035807967,-0.0018188940593972802
8505686998,-0.31974995136261,-9.70887660980225,-0.467324912548065,-0.007885596714913845,0.003894166788086295,-0.0017759270267561078
8644404649,-0.326240330934525,-9.71798038482666,-0.47431954741478,-0.006505701225250959,-0.0006136251031421125,-0.0022920463234186172
8666087627,-0.324569821357727,-9.71089267730713,-0.477491974830627,-0.007863772101700306,-0.002474275417625904,-0.0018980203894898295
8671654224,-0.324954032897949,-9.71526908874512,-0.479180365800858,-0.007459028158336878,-0.00242497306317091,-0.0014564689481630921
8738296985,-0.331088602542877,-9.7220401763916,-0.473313301801682,-0.004557325039058924,0.00601215660572052,0.0004613574710674584
8976050615,-0.317556023597717,-9.71054172515869,-0.479611277580261,-0.0008567522745579481,0.0026210208889096975,0.003932001069188118
8982617139,-0.316004306077957,-9.70920848846436,-0.477950930595398,-0.0010758164571598172,0.003117891261354089,0.004083549603819847
8993995428,-0.324736148118973,-9.70820045471191,-0.474642693996429,-0.0017901803366839886,0.00387431588023901,0.0033086573239415884
9009424209,-0.331063508987427,-9.71021366119385,-0.477327138185501,-0.0025067657697945833,0.004749528132379055,0.0016660465626046062
9042771100,-0.317372977733612,-9.71695804595947,-0.477784216403961,-0.00677028251811862,0.006943186279386282,-0.003389141522347927
9116475820,-0.310561776161194,-9.71561050415039,-0.474185764789581,-0.000931357208173722,-0.002271889243274927,0.001218426157720387
9232077360,-0.316343545913696,-9.71427154541016,-0.479932963848114,3.288744846940972e-05,0.0050946930423378944,-0.0003491935203783214
9232093095,-0.318116515874863,-9.70717334747315,-0.477760761976242,9.733560000313446e-05,0.005480930674821138,-0.00013385043712332845
9242697715,-0.332470834255219,-9.72102355957031,-0.468712121248245,-0.000236211228184402,0.0056381733156740665,-0.000550364435184747
9253773212,-0.320571303367615,-9.71089172363281,-0.475499182939529,-0.0007871200214140117,0.0053676338866353035,-0.0014243858167901635
9292716979,-0.315771847963333,-9.71257209777832,-0.47834524512291,-0.0043204352259635925,0.0025595230981707573,-0.000949057808611542
9382231712,-0.322964042425156,-9.71066951751709,-0.475200116634369,-0.003011123277246952,0.0023351493291556835,0.001832443755120039
9403814315,-0.322527438402176,-9.71338653564453,-0.465635687112808,-0.0007212481577880681,0.002718656789511442,0.0027493489906191826
9414922714,-0.312317430973053,-9.71471214294434,-0.477381467819214,-0.00038487245910800993,0.0027618592139333487,0.0028660872485488653
9432100534,-0.318990856409073,-9.70528888702393,-0.468415260314941,-0.00044633238576352596,0.002750565530732274,0.0027451934292912483
9436536550,-0.325309962034226,-9.7147274017334,-0.469422996044159,-0.0005159352440387011,0.0027941535227000713,0.0024909949861466885
9448268175,-0.32458221912384,-9.71304607391358,-0.47375550866127,-0.0004935990436933935,0.0030161128379404545,0.0022376144770532846
9453968048,-0.319452047348022,-9.70897388458252,-0.479473412036896,-0.0006311053293757141,0.0033755130134522915,0.0020520593971014023
9464961290,-0.309353590011597,-9.71471214294434,-0.477404057979584,-0.0010558600770309567,0.0037244807463139296,0.0017513049533590674
9470491886,-0.331303477287292,-9.71743583679199,-0.469045698642731,-0.0014864981640130281,0.003926553297787905,0.001074714120477438
9481612682,-0.322355419397354,-9.70863246917725,-0.475836485624313,-0.0016588183352723718,0.0038458199705928564,7.643612480023876e-05
9492843389,-0.317625850439072,-9.71235370635987,-0.473630100488663,-0.0017130981432273984,0.003469628980383277,-0.0008719096658751369
9503025054,-0.32320562005043,-9.71640777587891,-0.480117559432983,-0.0018690526485443115,0.002995996503159404,-0.001480254577472806
9515755414,-0.317715674638748,-9.71809482574463,-0.472863852977753,-0.0020915407221764326,0.0025838634464889765,-0.0017703957855701447
9564888238,-0.318326741456986,-9.71133518218994,-0.473422884941101,-0.004051934462040663,0.0008063238929025829,0.0016206410946324468
9576624631,-0.320535659790039,-9.70931625366211,-0.481199204921722,-0.004879790358245373,0.00116051419172436,0.0024673203006386757
9581645727,-0.314358443021774,-9.7002010345459,-0.475614845752716,-0.005162153858691454,0.0018117023864760995,0.002292670076712966
9593218564,-0.312714129686356,-9.71100616455078,-0.47106808423996,-0.004571293480694294,0.0028932802379131317,0.0011137457331642509
9609399080,-0.332174003124237,-9.72214603424072,-0.476445913314819,-0.003104791510850191,0.0043821679428219795,-0.0005520956474356353
9618061304,-0.327538698911667,-9.71301937103272,-0.483381390571594,-0.0013368353247642517,0.005729699041694403,-0.002049537841230631
9627302408,-0.30961275100708,-9.71169853210449,-0.458512723445892,-0.00019086386600974947,0.006191608030349016,-0.003008500440046191
9637142658,-0.312772333621979,-9.70931816101074,-0.47259396314621,-3.328296588733792e-05,0.005569604691118002,-0.0032223407179117203
9642638921,-0.315550833940506,-9.70728874206543,-0.475688368082047,-0.00028177036438137293,0.004385451320558786,-0.002503755735233426
9653965473,-0.327060967683792,-9.703932762146,-0.468325525522232,-0.00019018515013158321,0.003447327297180891,-0.0010223790304735303
9671977758,-0.325710505247116,-9.72282028198242,-0.474186658859253,0.0002827701100613922,0.0033066815230995417,0.0006516059511341155
9682009696,-0.326703816652298,-9.71506500244141,-0.473442763090134,0.0005191527307033539,0.0038326166104525328,0.001964145340025425
9687024593,-0.320196896791458,-9.70696830749512,-0.467182755470276,-5.620121009997092e-05,0.00435330905020237,0.002630405593663454
9692629098,-0.316418528556824,-9.71539497375488,-0.471634328365326,-0.0013992745662108064,0.004389326553791761,0.0027031060308218002
9703755378,-0.316463768482208,-9.70966243743897,-0.468842953443527,-0.0028412684332579374,0.004008782096207142,0.0024991168174892664
9715754270,-0.324676603078842,-9.71945190429688,-0.465851098299027,-0.0036116864066570997,0.0034874749835580587,0.0023681065067648888
9726013422,-0.324361681938171,-9.71775913238526,-0.474557101726532,-0.003463099943473935,0.0029348640237003565,0.0025223668199032545
9743964195,-0.308142364025116,-9.71541881561279,-0.459771990776062,-0.0027334901969879866,0.0022542078513652086,0.0029845996759831905
9754914999,-0.32837387919426,-9.71270275115967,-0.469765424728394,-0.0018250332213938236,0.001387630240060389,0.0036792601458728313
9754951715,-0.325439065694809,-9.71573162078858,-0.470519810914993,-0.0009999871253967285,0.000515138206537813,0.004520822782069445
9765829324,-0.317840039730072,-9.71403598785401,-0.479387313127518,-0.0005833549075759947,-7.963019015733153e-05,0.00526278093457222
9780652999,-0.327933728694916,-9.7076416015625,-0.469707310199738,-0.0008131530485115945,-0.00021681388898286968,0.0054517402313649654
10085207223,-0.322352170944214,-9.71439456939697,-0.467809677124023,0.0007493930752389133,-0.0019998231437057257,-0.00029413154697977006
10096111059,-0.323983877897263,-9.72112464904785,-0.475347936153412,5.239062011241913e-05,-0.0019168030703440309,-0.00034540638444013894
10101748228,-0.328905254602432,-9.71675109863281,-0.472855985164642,-0.001023118500597775,-0.001453640405088663,-0.00020275595306884497
10113240957,-0.313008427619934,-9.71201515197754,-0.478308588266373,-0.0022923718206584454,-0.0009618496987968683,0.00010374032717663795
10124568700,-0.318805009126663,-9.72349643707276,-0.470576912164688,-0.003428624477237463,-0.0006640484789386392,0.00032981744152493775
10134970664,-0.323236137628555,-9.72181797027588,-0.474006593227386,-0.003963577561080456,-0.0006479214644059539,0.0003028822538908571
10146138906,-0.322005927562714,-9.7164134979248,-0.464597910642624,-0.003703327849507332,-0.001028313534334302,0.0001222499558934942
10151759386,-0.331193745136261,-9.71774005889893,-0.478134304285049,-0.0029933375772088766,-0.0017972794594243169,7.745039329165593e-05
10162825822,-0.325732350349426,-9.71168613433838,-0.471490561962128,-0.0024933249223977327,-0.0026408792473375797,0.0003328040475025773
10174712657,-0.323014497756958,-9.71675777435303,-0.467669874429703,-0.002721817698329687,-0.0030982813332229853,0.0007759046857245266
10186372518,-0.327061474323273,-9.71606636047363,-0.471538543701172,-0.003700577886775136,-0.002888567978516221,0.0012530997628346086
10874093294,-0.324138253927231,-9.72787094116211,-0.478373110294342,-0.004376574419438839,0.0046964059583842754,0.00021207891404628754
10890368938,-0.330597221851349,-9.70932579040527,-0.46472692489624,-0.004712705500423908,0.005623979493975639,0.00034911849070340395
10890390872,-0.321806222200394,-9.70796871185303,-0.474975824356079,-0.005032307468354702,0.005823930725455284,0.0004982352256774902
10896188259,-0.319822281599045,-9.71506881713867,-0.47134393453598,-0.005366033874452114,0.005296612624078989,0.0006611580611206591
10908595085,-0.331055611371994,-9.7120304107666,-0.470407873392105,-0.005620908923447132,0.004436786752194166,0.0008940285188145936
10948669195,-0.314095556735992,-9.71707439422608,-0.473748207092285,-0.006741724442690611,0.002278938191011548,0.003020254662260413
10968264102,-0.328632414340973,-9.72450637817383,-0.475971668958664,-0.006189333274960518,0.000803989009000361,0.00263356720097363
11136270284,-0.316398531198502,-9.70695495605469,-0.471356987953186,-0.003094920888543129,0.002465482335537672,-0.002025175141170621
11148673295,-0.331357717514038,-9.71269989013672,-0.47443038225174,-0.0015155166620388627,0.0022345329634845257,-0.0008499050163663924
11247288942,-0.316369712352753,-9.71776962280273,-0.463816851377487,-0.001019813003949821,0.0016911412822082639,0.0011584432795643806
11302551746,-0.318099707365036,-9.69750690460205,-0.473935335874558,-0.003768431954085827,-3.501271521599847e-06,0.0001903170777950436
11480315446,-0.312997877597809,-9.71000480651855,-0.468110769987106,-0.004652844276279211,0.0019687963649630547,0.0029233547393232584
11486059188,-0.318895161151886,-9.7143669128418,-0.48341378569603,-0.006105180364102125,0.0022553042508661747,0.0015586201334372163
11496970415,-0.320558339357376,-9.7133903503418,-0.46613746881485,-0.006348396651446819,0.002660344587638974,0.0006488666404038668
11569244623,-0.320696026086807,-9.71506118774414,-0.473496973514557,0.0037684112321585417,0.0035431457217782736,0.004177029710263014
11580476522,-0.319600999355316,-9.72046661376953,-0.473563700914383,0.0030876053497195244,0.004058487713336945,0.004850710742175579
11608119010,-0.324035704135895,-9.71202182769776,-0.47214674949646,-0.00016845430945977569,0.002136776689440012,0.0014627545606344938
11613682270,-0.321265518665314,-9.70965194702148,-0.482241332530975,-0.0001142252585850656,0.000950148212723434,-0.0002505289448890835
11902555704,-0.318034708499908,-9.71034145355225,-0.468218386173248,-0.0034314875956624746,0.003206153167411685,0.0013673721114173532
11919212579,-0.319887310266495,-9.70965003967285,-0.472065150737762,-0.005034571047872305,0.0040068975649774075,-0.0007176338112913072
11930650234,-0.307247221469879,-9.70762252807617,-0.475407987833023,-0.0052696033380925655,0.005549546331167221,-0.0017863800749182701
11947095394,-0.318401128053665,-9.71674537658691,-0.472267985343933,-0.003976146690547466,0.007102489471435547,-0.0016436096047982574
12076468229,-0.324568808078766,-9.71912574768066,-0.471603065729141,-3.0149776648613624e-05,-0.0008295415318571031,0.0006940540624782443
12085907459,-0.319758176803589,-9.71101188659668,-0.476125299930573,-0.0007673318614251912,-0.00086516875308007,0.0015786272706463933
12092292547,-0.328433215618134,-9.70663166046143,-0.469823449850082,-0.001723372028209269,-0.0004155271453782916,0.0022187705617398024
12102650880,-0.318864464759827,-9.71674346923828,-0.471708863973618,-0.0027410208713263273,0.0004865076334681362,0.002426129998639226
12113708496,-0.324346780776978,-9.70357704162598,-0.473939538002014,-0.003645014949142933,0.001725603244267404,0.0022390251979231834
12124946117,-0.319882750511169,-9.70695209503174,-0.474938482046127,-0.004253861028701067,0.0031240247189998627,0.0018225875683128834
12136006593,-0.325504273176193,-9.70054244995117,-0.472854495048523,-0.004455700982362032,0.004610349889844656,0.0012877637054771185
12141461849,-0.32392019033432,-9.70223999023438,-0.467483699321747,-0.004319080151617527,0.006257194560021162,0.000733003718778491
12152671098,-0.318186908960342,-9.71337223052979,-0.467266619205475,-0.004045835230499506,0.008060220628976822,0.00038690053042955697
12213739395,-0.318847388029099,-9.71134757995605,-0.474947601556778,0.004464060999453068,0.00617839302867651,0.000728615268599242
12224850654,-0.335112154483795,-9.71911239624023,-0.474767059087753,0.005357911344617605,0.004654863849282265,-0.0006813590880483389
12475340604,-0.323225110769272,-9.71302509307862,-0.4798663854599,-0.0015171358827501535,0.0018263894598931074,0.004299872554838657
12515079736,-0.306637138128281,-9.70492839813233,-0.477598011493683,-0.003622617805376649,0.005006945226341486,-0.003743689274415374
12524799346,-0.314493149518967,-9.70998954772949,-0.473943024873734,-0.004560703411698341,0.00564976641908288,-0.00455040019005537
12537409782,-0.321355819702148,-9.71641826629639,-0.465898215770721,-0.004368155729025602,0.005850570276379585,-0.00432207528501749
12550411701,-0.324031859636307,-9.70831966400147,-0.46976712346077,-0.0029143719002604485,0.005694723222404718,-0.003202409017831087
12558412075,-0.333848834037781,-9.71303558349609,-0.474742650985718,-0.00101594184525311,0.005266163498163223,-0.0014345545787364244
12565463304,-0.319171637296677,-9.71641063690186,-0.475888431072235,0.00013079795462545007,0.0046813045628368855,0.0005148167838342488
12574940204,-0.321992099285126,-9.71842384338379,-0.474010556936264,-0.00014704250497743487,0.003999081440269947,0.0019882512278854847
12588591098,-0.32697856426239,-9.72215270996094,-0.47009414434433,-0.001585121382959187,0.0031066483352333307,0.002530729165300727
12597754955,-0.326061338186264,-9.71809005737305,-0.483547806739807,-0.003433619625866413,0.0018356336513534188,0.0021502175368368626
12602241039,-0.319569319486618,-9.71235942840576,-0.47551029920578,-0.0050728050991892815,0.00022207781148608774,0.0011052401969209313
12613693714,-0.325590312480927,-9.70291328430176,-0.468821555376053,-0.006131153553724289,-0.0012814487563446164,-0.0003117286541964859
12625032663,-0.317947745323181,-9.71707439422608,-0.47699710726738,-0.006423706654459238,-0.0019433402922004461,-0.0016725898021832108
12635892152,-0.31047597527504,-9.71135234832764,-0.468174189329147,-0.00591138144955039,-0.001338210073299706,-0.0024805113207548857
12647073268,-0.323300242424011,-9.71539402008057,-0.47391751408577,-0.004610841162502766,0.00023483892437070608,-0.0024707431439310312
12653730154,-0.316804200410843,-9.71743488311768,-0.469126790761948,-0.0027063635643571615,0.0019956810865551233,-0.0017056470969691873
12704647064,-0.31557908654213,-9.71234035491944,-0.478103011846542,0.0004964708350598812,0.002796411979943514,0.0019808656070381403
12713754892,-0.32840970158577,-9.71775341033936,-0.477589398622513,-0.0013778868597000837,0.0022919282782822847,0.00020613735250663012
13042212009,-0.319744348526001,-9.71101188659668,-0.473204404115677,-0.0009612809517420828,0.002486339770257473,-0.005631327163428068
13096065759,-0.337319433689117,-9.70797729492188,-0.473701119422913,-0.003555371891707182,0.004957432858645916,0.004587749019265175
13186174392,-0.317474722862244,-9.71945381164551,-0.474505811929703,-0.002023756504058838,0.004863905720412731,-0.001438512234017253
13201710700,-0.321782231330872,-9.7147331237793,-0.473102122545242,-0.0011357123730704188,0.004133270122110844,-0.0005835105548612773
13213515281,-0.323017001152039,-9.7177619934082,-0.466934740543365,-0.0005768326809629798,0.002955782227218151,0.0003142448840662837
13297024726,-0.318170249462128,-9.71369552612305,-0.478108316659927,-0.0029461567755788565,0.0014871167950332165,-0.0015528510557487607
13313691377,-0.316149353981018,-9.71775531768799,-0.473338305950165,-0.003179958090186119,0.0021457006223499775,-0.0028186251875013113
13329531669,-0.322020143270493,-9.69988441467285,-0.46947506070137,-0.0031169981230050325,0.0027636538725346327,-0.003633177140727639
13336013078,-0.326181143522263,-9.70628356933594,-0.47504124045372,-0.0026794257573783398,0.003341709729284048,-0.0037165333051234484
13563580513,-0.319605886936188,-9.71742153167725,-0.470842778682709,0.0018186711240559816,0.005010760854929686,0.0001540173398097977
13574891805,-0.325356096029282,-9.71573638916016,-0.468250185251236,0.003285834100097418,0.0030932079534977674,0.0013197511434555054
13586075067,-0.323700308799744,-9.7079668045044,-0.479477167129517,0.003686202224344015,0.001542974030598998,0.002686278196051717
13596876144,-0.325419694185257,-9.71538925170898,-0.476333349943161,0.0027743305545300245,0.0006232670857571065,0.0036660884507000446
13611928462,-0.320408433675766,-9.70730495452881,-0.467513144016266,0.0007797105354256928,0.0004846699011977762,0.0037414419930428267
13658127546,-0.318341314792633,-9.72114086151123,-0.468252688646317,-0.004812151193618774,0.004210970364511013,0.0006671662558801472
13796891212,-0.330243438482285,-9.7093391418457,-0.471967548131943,-0.003684690920636058,0.006180912256240845,-0.00015224266098812222
13852630853,-0.318750321865082,-9.71945381164551,-0.470510929822922,-0.00553349731490016,0.003907293081283569,0.00105722073931247
13863577365,-0.327004134654999,-9.70863914489746,-0.477968096733093,-0.005802360363304615,0.0030615455470979214,0.0009641314391046762
13874370574,-0.318873941898346,-9.70659828186035,-0.48686283826828,-0.00542417960241437,0.0024789159651845694,0.0008360497304238379
13885765552,-0.323282867670059,-9.71268939971924,-0.474954724311829,-0.004611636977642775,0.002352074719965458,0.0003141197084914893
13896888494,-0.329740703105927,-9.71168899536133,-0.466539651155472,-0.0037392342928797007,0.002786434255540371,-0.0008324009249918163
13913637876,-0.323341012001038,-9.70965766906738,-0.47708922624588,-0.003207339206710458,0.0035975086502730846,-0.002210431033745408
13924691915,-0.32366406917572,-9.70123386383057,-0.467380046844482,-0.003290487453341484,0.004490754101425409,-0.003075388493016362
13930258512,-0.324884355068207,-9.71134376525879,-0.473304241895676,-0.003923232667148113,0.005374867934733629,-0.002974317641928792
14285815477,-0.316489577293396,-9.71235752105713,-0.47121587395668,-0.0003960055473726243,-0.0006450830260291696,0.00025546891265548766
14291367292,-0.323642879724503,-9.70357704162598,-0.477870613336563,-0.0005038281087763608,0.001004973310045898,-5.746227179770358e-05
14874722242,-0.314749360084534,-9.70458507537842,-0.481998085975647,-0.00551267247647047,0.0038411347195506096,0.003159014508128166
14885657072,-0.323048382997513,-9.70562076568604,-0.459255009889603,-0.003618494374677539,0.004338519647717476,0.0026731048710644245
14891275882,-0.308831840753555,-9.70526313781738,-0.481999576091766,-0.0017848745919764042,0.005364878103137016,0.001675906591117382
14908595085,-0.323551833629608,-9.70696449279785,-0.47652280330658,-0.00028711825143545866,0.006845632568001747,0.000661633734125644
14958919286,-0.31720232963562,-9.71335506439209,-0.478111863136292,-0.0010760296136140823,0.006265569943934679,-0.0026358107570558786
15152375221,-0.325317859649658,-9.72586345672608,-0.46746638417244,-0.009228912182152271,-0.004050395917147398,0.0009230340947397053
15184174299,-0.330833613872528,-9.71776866912842,-0.47330179810524,-0.011841868050396442,-0.014457299374043941,0.006458862219005823
15211912393,-0.334241569042206,-9.73261165618897,-0.476996690034866,-0.00857329647988081,-0.006517700385302305,0.004159373696893454
15256285190,-0.333964884281158,-9.7093505859375,-0.456543177366257,-0.010160965844988823,-0.008338266983628273,-0.0008828921709209681
15261910200,-0.338978379964829,-9.71641445159912,-0.468101620674133,-0.010684884153306484,-0.007411217782646418,0.0015429219929501414
15356343269,-0.314135581254959,-9.68772506713867,-0.476073414087296,0.0052583790384233,0.0048042177222669125,-0.01230115070939064
15395188093,-0.320195257663727,-9.72618865966797,-0.474712908267975,0.007219013292342424,0.031067291274666786,-0.002570528769865632
15434443473,-0.335459768772125,-9.69345760345459,-0.477538585662842,0.002956732176244259,0.01591981202363968,0.0009733645711094141
15445234298,-0.329156070947647,-9.66546726226807,-0.473246455192566,-7.400878530461341e-05,0.006709132343530655,-0.002050757175311446
15456691026,-0.320775061845779,-9.66610908508301,-0.482365161180496,-0.0034302829299122095,0.0026237473357468843,-0.004630748648196459
15473432540,-0.318880140781403,-9.68735980987549,-0.482580155134201,-0.008481545373797417,0.014832691289484501,-0.006577689200639725
15511786699,-0.313791215419769,-9.71234321594238,-0.480281949043274,-0.0014892350882291794,0.03592487797141075,-0.004786497447639704
15523196220,-0.317710161209106,-9.69985485076904,-0.475544303655624,0.002228751080110669,0.026150092482566833,-0.004228436853736639
15556883811,-0.33075612783432,-9.69953441619873,-0.477033287286758,0.007130406331270933,0.0022949082776904106,-0.0037064652424305677
15723187923,-0.311432093381882,-9.7261848449707,-0.472842067480087,-0.006139771081507206,-0.013420572504401207,0.006524520460516214
15784158468,-0.304100334644318,-9.72721290588379,-0.469597488641739,0.008779406547546387,-0.009943622164428234,0.0013721026480197906
15795280456,-0.314088642597198,-9.73531818389893,-0.463803946971893,0.011057061143219471,-0.010718797333538532,0.0030877452809363604
15806524515,-0.30566617846489,-9.71166229248047,-0.485205739736557,0.012325077317655087,-0.012911769561469555,0.004880702588707209
15812019348,-0.322985798120499,-9.72281837463379,-0.474593788385391,0.012529982253909111,-0.01502285711467266,0.0059203351847827435
15823838233,-0.316677361726761,-9.70864009857178,-0.472000062465668,0.011676565743982792,-0.0155877023935318,0.00557934632524848
15834171772,-0.321049392223358,-9.72080039978027,-0.472380042076111,0.009804434143006802,-0.013899272307753563,0.0039055082015693188
15845320701,-0.315675497055054,-9.72722148895264,-0.468433260917664,0.007152268197387457,-0.010363435372710228,0.001677192747592926
15850792646,-0.315959990024567,-9.7123327255249,-0.488063097000122,0.004275510087609291,-0.006276670843362808,-0.00021231260325293988
15864449024,-0.321786999702454,-9.69650268554688,-0.473753929138184,0.0018495327094569802,-0.002876789541915059,-0.0014250167878344655
16161913871,-0.333932399749756,-9.72011947631836,-0.483694732189178,0.017931025475263596,0.010684753768146038,-0.017902063205838203
16174131870,-0.323822110891342,-9.72653007507324,-0.479100555181503,0.011686667799949646,0.004808237310498953,-0.018215447664260864
16189618110,-0.325443983078003,-9.71169853210449,-0.463603585958481,0.00516456738114357,-0.0026485829148441553,-0.018287373706698418
16200955390,-0.343502581119537,-9.71236228942871,-0.470983326435089,-0.0010226143058389425,-0.009057074785232544,-0.01695256307721138
16206309080,-0.333305418491364,-9.72686958312988,-0.485869586467743,-0.006298333406448364,-0.012373519130051136,-0.013598918914794922
16217458963,-0.305009067058563,-9.72750282287598,-0.503048181533813,-0.010362680070102215,-0.012212949804961681,-0.00902082584798336
16278276681,-0.23291639983654,-9.6751184463501,-0.580101788043976,0.017783382907509804,-0.010995655320584774,-0.038430895656347275
16500947713,-0.302462637424469,-9.74205875396729,-0.559135556221008,0.004239637870341539,-0.0043563321232795715,-0.06843055039644241
16690117835,-0.286287695169449,-9.68499183654785,-0.505866706371307,-0.03437560051679611,0.060519713908433914,-0.04280833154916763
16695616960,-0.290225595235825,-9.66677665710449,-0.496208310127258,-0.021369248628616333,0.07621212303638458,-0.04105524346232414
16706670999,-0.28516685962677,-9.66813278198242,-0.487869560718536,-0.006608875468373299,0.08318533003330231,-0.03834317997097969
16718052387,-0.282113969326019,-9.66205501556397,-0.477074652910233,0.00821155309677124,0.08048317581415176,-0.03457392752170563
16722907781,-0.289565324783325,-9.66780662536621,-0.466558426618576,0.02120371162891388,0.07098309695720673,-0.02952936664223671
16762448072,-0.329380869865417,-9.69921684265137,-0.439700961112976,0.03224626183509827,0.044549379497766495,0.0043433187529444695
16884062290,-0.32185173034668,-9.70625400543213,-0.444267004728317,-0.0082864286378026,0.03123636357486248,0.03887416422367096
16995109081,-0.302345961332321,-9.71870994567871,-0.441406816244125,-0.024271562695503235,0.011558035388588905,0.045014090836048126
17006296873,-0.297115474939346,-9.71771144866944,-0.434476375579834,-0.018164198845624924,0.00503239082172513,0.04616420343518257
17018230676,-0.299381136894226,-9.72074985504151,-0.438032060861588,-0.00932406634092331,-0.0017289920942857862,0.04580133780837059
17028451681,-0.289041608572006,-9.71261978149414,-0.444759160280228,0.0009456562111154199,-0.006802788469940424,0.04397881403565407
17034748077,-0.275137901306152,-9.70823383331299,-0.45763748884201,0.011071005836129189,-0.009087195619940758,0.04103562980890274
17046734809,-0.279591083526611,-9.70688629150391,-0.453572392463684,0.020005742087960243,-0.008394990116357803,0.037221986800432205
17056599617,-0.290088266134262,-9.71093368530273,-0.455956727266312,0.02737591229379177,-0.005277258809655905,0.03268904983997345
17073131084,-0.299472987651825,-9.72950267791748,-0.460452407598496,0.03639857843518257,0.0031344848684966564,0.022951113060116768
17365639448,-0.291040480136871,-9.73495292663574,-0.478024452924728,0.0240425243973732,-0.015883294865489006,0.011374851688742638
17377063751,-0.280874997377396,-9.73362731933594,-0.470907837152481,0.020467808470129967,-0.01626713015139103,0.01086436491459608
17381582260,-0.286553829908371,-9.71909713745117,-0.480759501457214,0.019265761598944664,-0.017611036077141762,0.009104031138122082
17410095214,-0.27325838804245,-9.72755527496338,-0.466876864433289,0.024330468848347664,-0.01846875250339508,0.0031167485285550356
17415607690,-0.267821043729782,-9.7160701751709,-0.469016373157501,0.029290102422237396,-0.016183486208319664,0.00041002899524755776
17454928874,-0.283757984638214,-9.72147369384766,-0.473909020423889,0.04439208284020424,-0.0032814000733196735,0.0008058198727667332
17593440532,-0.340460300445557,-9.7140703201294,-0.480720460414886,-0.008583339862525463,-0.008468729443848133,0.018004722893238068
17643204927,-0.341875404119492,-9.68440055847168,-0.433477252721787,-0.018032072111964226,0.0025920013431459665,0.0008950831834226847
17654525756,-0.366305679082871,-9.67932415008545,-0.447534263134003,-0.017941221594810486,0.007404061034321785,0.0036921582650393248
17804585695,-0.341004014015198,-9.7170991897583,-0.450830817222595,-0.040383320301771164,0.00894986279308796,0.03556053340435028
17865494966,-0.369452953338623,-9.708327293396,-0.454706877470017,-0.02375458925962448,0.004056646954268217,0.026378193870186806
17876914262,-0.36772632598877,-9.70190715789795,-0.469079852104187,-0.02997514046728611,0.005742768291383982,0.02332034707069397
17887731075,-0.358658909797668,-9.70460033416748,-0.462929636240006,-0.03765764832496643,0.008174336515367031,0.020430877804756165
17898855447,-0.364274471998215,-9.70729923248291,-0.459248185157776,-0.04471853747963905,0.010466993786394596,0.017585279420018196
17904854059,-0.365907996892929,-9.70699214935303,-0.440857380628586,-0.049412693828344345,0.012003605253994465,0.014950858429074287
17915476083,-0.374494999647141,-9.70664215087891,-0.441637128591538,-0.05118579789996147,0.012496485374867916,0.01332583837211132
17921078205,-0.379504293203354,-9.70969867706299,-0.439955532550812,-0.05083407834172249,0.012006851844489574,0.013737745583057404
17954423904,-0.361171811819077,-9.71946048736572,-0.443439930677414,-0.050718002021312714,0.007371451705694199,0.02629917301237583
18138232231,-0.360553801059723,-9.71234703063965,-0.466296434402466,-0.037603363394737244,0.0033595652785152197,0.022376740351319313
18226610183,-0.320077836513519,-9.70757865905762,-0.496676236391068,-0.015794869512319565,0.007433837279677391,-0.0017725421348586679
18404371023,-0.318173706531525,-9.71567726135254,-0.519625127315521,-0.021202635020017624,-0.012727049179375172,-0.015944352373480797
18415865898,-0.309735596179962,-9.7136754989624,-0.508325755596161,-0.013732748106122017,-0.012606811709702015,-0.022198917344212532
18427002191,-0.303078949451447,-9.72615337371826,-0.516025185585022,-0.006052108481526375,-0.011655086651444435,-0.028669467195868492
18436219692,-0.308059096336365,-9.71671199798584,-0.509986400604248,0.0008405763073824346,-0.009667469188570976,-0.03445228189229965
18455147743,-0.307541698217392,-9.72481822967529,-0.5137158036232,0.010291652753949165,-0.005118344444781542,-0.0410473495721817
18510172367,-0.321941822767258,-9.72212505340576,-0.509397864341736,0.006680457387119532,-0.010327335447072983,-0.035326991230249405
18516181230,-0.328044682741165,-9.71772480010987,-0.509381115436554,0.0029878707136958838,-0.011597611010074615,-0.03385188803076744
18527001380,-0.334534972906113,-9.71200466156006,-0.50756847858429,-0.0007824519416317344,-0.011548775248229504,-0.0328771136701107
18804781198,-0.322534203529358,-9.70492839813233,-0.504464149475098,0.0029461730737239122,0.006101714912801981,-0.036100760102272034
18815523624,-0.32235923409462,-9.72683811187744,-0.514467239379883,0.0007357131107710302,0.0069390893913805485,-0.03514499589800835
18826677083,-0.309373378753662,-9.71671676635742,-0.512456178665161,-0.001448425347916782,0.00718798628076911,-0.03428082913160324
18882211446,-0.283330321311951,-9.6879940032959,-0.53197705745697,0.009013906121253967,0.00013729024794884026,-0.0370260514318943
18982220888,-0.27453950047493,-9.67177867889404,-0.506714284420014,0.08960793167352676,0.04757721349596977,-0.08324296772480011
19093290090,-0.357257843017578,-9.76709270477295,-0.432074159383774,-0.0645669475197792,-0.07421009242534637,0.02185034193098545
19104707002,-0.35385462641716,-9.78597927093506,-0.445096105337143,-0.07005881518125534,-0.08532392233610153,0.023365046828985214
19204643249,-0.332243025302887,-9.71270084381104,-0.501270651817322,0.05089547112584114,-0.027937764301896095,-0.019237587228417397
19244144201,-0.349215179681778,-9.7211799621582,-0.459799259901047,0.0024145517963916063,0.010824950411915779,-0.026809120550751686
19259782552,-0.354475766420364,-9.71951675415039,-0.445238411426544,-0.010910023003816605,0.00926960725337267,-0.02149687334895134
19265027284,-0.351823627948761,-9.70364093780518,-0.453565329313278,-0.020929086953401566,0.0042680841870605946,-0.013386789709329605
19270961046,-0.354840219020844,-9.70668983459473,-0.440533816814423,-0.027709033340215683,-0.0012837841641157866,-0.0031898152083158493
19282084703,-0.359817564487457,-9.68442058563233,-0.44709923863411,-0.03185175731778145,-0.004603000823408365,0.0077143264934420586
19293098211,-0.357575565576553,-9.68946838378906,-0.458893537521362,-0.03419603779911995,-0.003972943406552076,0.017617344856262207
19537869691,-0.310017466545105,-9.66507339477539,-0.498923480510712,-0.013091462664306164,0.06441456079483032,-0.019464921206235886
19587724685,-0.287069797515869,-9.67887878417969,-0.511688530445099,0.012425972148776054,0.03757896646857262,-0.03277665376663208
19637175798,-0.297835141420364,-9.69846057891846,-0.495755255222321,0.026508286595344543,0.03615669906139374,-0.04293307289481163
19652706146,-0.297891706228256,-9.69240665435791,-0.487481713294983,0.02263454906642437,0.02871273271739483,-0.03692680969834328
19745489597,-0.309262007474899,-9.70287609100342,-0.493214547634125,0.019552728161215782,0.013405338861048222,-0.0467570498585701
19923132181,-0.308401823043823,-9.73423290252686,-0.516865849494934,0.013440068811178207,-0.010917335748672485,-0.04357992485165596
19934372901,-0.297849953174591,-9.72847175598145,-0.527059733867645,0.01192568801343441,-0.014218666590750217,-0.04370623081922531
19945852994,-0.299698323011398,-9.72511291503906,-0.525532424449921,0.011560916900634766,-0.0175604447722435,-0.044368088245391846
19950773000,-0.31065109372139,-9.73658752441406,-0.527756989002228,0.01237083412706852,-0.01967523992061615,-0.045531630516052246
20106394290,-0.308642059564591,-9.72376728057862,-0.518842995166779,0.012676035985350609,-0.010010834783315659,-0.04886789619922638
20112551450,-0.305629312992096,-9.72781944274902,-0.519814789295197,0.013761664740741253,-0.013610731810331345,-0.05158386752009392
20300757169,-0.31842440366745,-9.71601295471191,-0.516000032424927,0.002405125880613923,-0.0012823145370930433,-0.04049268364906311
20423966884,-0.347608208656311,-9.72993278503418,-0.478868931531906,-0.038500621914863586,-0.02267349138855934,-0.01235299650579691
20545408487,-0.334344416856766,-9.70255470275879,-0.494222402572632,0.0029078307561576366,0.005228364374488592,-0.0364338643848896
20562201738,-0.335960239171982,-9.70156669616699,-0.481411874294281,0.0001570332096889615,0.013145728036761284,-0.032192569226026535
20575487613,-0.350042581558228,-9.71540832519531,-0.483397394418716,-0.0032864625100046396,0.01575281284749508,-0.028270931914448738
20590249061,-0.351085007190704,-9.71575260162354,-0.472241640090942,-0.007711866404861212,0.01646101102232933,-0.023626402020454407
20595148563,-0.3639295399189,-9.72115802764893,-0.470634460449219,-0.013035889714956284,0.014968521893024445,-0.01847071945667267
20606160163,-0.36699590086937,-9.71880531311035,-0.469148427248001,-0.019243884831666946,0.011473738588392735,-0.013003721833229065
20617515087,-0.367675453424454,-9.7188024520874,-0.464545696973801,-0.026178468018770218,0.00672033941373229,-0.0075131007470190525
20622909069,-0.380980908870697,-9.72488594055176,-0.46337503194809,-0.03344961255788803,0.0017700406024232507,-0.0023640235885977745
20634192228,-0.383342623710632,-9.71986389160156,-0.439016669988632,-0.04059084504842758,-0.0024403699208050966,0.002241096692159772
20774283885,-0.30078649520874,-9.69719409942627,-0.458039939403534,0.005991753190755844,0.008630060590803623,0.002814928535372019
20943854570,-0.313239961862564,-9.6765775680542,-0.465694546699524,0.00429632980376482,0.021583842113614082,0.018321208655834198
21095023393,-0.300664275884628,-9.70998001098633,-0.471441626548767,-0.0003585797967389226,0.023115869611501694,0.022047044709324837
21106293916,-0.318396598100662,-9.70831680297852,-0.456548392772675,0.0003834147937595844,0.02312009036540985,0.02441573329269886
21117465019,-0.328992664813995,-9.7035665512085,-0.462943553924561,0.0019264461006969213,0.022511731833219528,0.024331869557499886
21129451990,-0.310232609510422,-9.71503353118897,-0.474783360958099,0.003404963295906782,0.020362678915262222,0.021780187264084816
21167369365,-0.314038455486298,-9.70695495605469,-0.463673949241638,0.0036903838627040386,0.008915318176150322,0.008769216947257519
21173217296,-0.302313208580017,-9.69547653198242,-0.462650030851364,0.0030275010503828526,0.006292716600000858,0.006174109876155853
21184165477,-0.30340164899826,-9.69681262969971,-0.465158760547638,0.002548619406297803,0.005309775937348604,0.005365935154259205
21195367097,-0.324945151805878,-9.72856330871582,-0.453672647476196,0.0029450480360537767,0.0061061792075634,0.006060307379812002
21556237936,-0.333190768957138,-9.72487735748291,-0.45498925447464,-0.017258314415812492,-0.007030927110463381,0.004516615066677332
21734549760,-0.322575360536575,-9.72049045562744,-0.465219080448151,-0.007178797386586666,-0.0036536448169499636,0.00909491442143917
21745207309,-0.324744641780853,-9.70697593688965,-0.474263906478882,-0.005583754274994135,-0.005218303296715021,0.00985993817448616
21750736951,-0.330720901489258,-9.70024204254151,-0.464814841747284,-0.004686698783189058,-0.006053355056792498,0.00972042791545391
21767729282,-0.329810738563538,-9.71170616149902,-0.47018700838089,-0.0045217531733214855,-0.005269502755254507,0.008687788620591164
21795141220,-0.331289172172546,-9.71036720275879,-0.465100735425949,-0.00845433957874775,0.004628846421837807,0.004419899079948664
21834138631,-0.324960559606552,-9.70934391021729,-0.46724545955658,-0.012185607105493546,0.008098839782178402,0.006115533411502838
21956241846,-0.322242200374603,-9.69719028472901,-0.462153911590576,-0.00122540513984859,0.007454182952642441,0.004404469858855009
22008682250,-0.311512917280197,-9.70900440216065,-0.462362349033356,-0.0016351600643247366,0.011994190514087677,0.0037542833015322685
22017518520,-0.319789499044418,-9.69414806365967,-0.467994540929794,-0.002517928136512637,0.011175263673067093,0.003141912631690502
22089770078,-0.310997068881989,-9.70256805419922,-0.470324993133545,0.0011986731551587582,0.012209281325340271,0.008036569692194462
22195108652,-0.324464827775955,-9.70999908447266,-0.467863947153091,-0.00037609526771120727,0.00453548226505518,0.011512481607496738
22214690446,-0.321589559316635,-9.71438598632812,-0.462959349155426,-0.0010233219945803285,0.006353260483592749,0.011688332073390484
22295209169,-0.318589448928833,-9.70796775817871,-0.475635379552841,-5.333857188816182e-05,0.0030353928450495005,0.007602454163134098
22495098352,-0.330815136432648,-9.72014999389648,-0.457818001508713,-0.011082530952990055,-0.003318795934319496,0.00444986205548048
22507277727,-0.3246049284935,-9.7127046585083,-0.471963793039322,-0.009805246256291866,-0.0033694265875965357,0.004049323964864016
22611742496,-0.31937500834465,-9.72282886505127,-0.472974091768265,-0.006133743561804295,-0.00128541374579072,0.0006207447149790823
23289315700,-0.316729098558426,-9.7140417098999,-0.471816301345825,-0.005809562746435404,0.0048144166357815266,0.00924212858080864
23506432294,-0.321269094944,-9.71910953521729,-0.472930550575256,-0.010512275621294975,-0.003628351492807269,0.0009145468357019126
23511262893,-0.320972800254822,-9.71133422851562,-0.478228598833084,-0.009583177976310253,-0.0036996672861278057,0.0016857718583196402
23522662639,-0.320324510335922,-9.71540069580078,-0.470421135425568,-0.00818843487650156,-0.0038927688729017973,0.0021178978495299816
23534930229,-0.310403525829315,-9.71437358856201,-0.468805521726608,-0.006489043589681387,-0.0037471235264092684,0.001970000797882676
23550580263,-0.326287418603897,-9.71506881713867,-0.469441533088684,-0.002304431051015854,-0.0017733103595674038,0.0013352062087506056
23605917692,-0.321357607841492,-9.70896911621094,-0.477706044912338,-0.0030041146092116833,0.0002891149779316038,0.002629203489050269
23617196559,-0.325246840715408,-9.70662212371826,-0.465292245149612,-0.004524562507867813,-0.0005254773423075676,0.00037746556336060166
23757531881,-0.322691917419434,-9.71944904327393,-0.467075347900391,0.002015021163970232,-0.002131071873009205,0.005319632589817047
23912927389,-0.322648465633392,-9.70969295501709,-0.45717865228653,-0.008438227698206902,0.0001912110164994374,0.003013772424310446
23923997879,-0.321058034896851,-9.72214794158936,-0.473632097244263,-0.007623308338224888,0.0018046085024252534,0.002180872019380331
23974096536,-0.320546805858612,-9.71743106842041,-0.470780849456787,-0.0030646200757473707,0.0038405193481594324,0.003679882735013962
24085134983,-0.322908967733383,-9.71370887756348,-0.474206745624542,-0.0020546922460198402,0.003032670123502612,0.0015561857726424932
24090778350,-0.329821825027466,-9.71642684936523,-0.464662104845047,-0.002100409707054496,0.0027591094840317965,0.0017379034543409944
24101888179,-0.337030202150345,-9.71947479248047,-0.463728010654449,-0.0022871196269989014,0.0025040078908205032,0.0018003057921305299
24268439292,-0.318795531988144,-9.71641254425049,-0.473123967647552,-0.00491437828168273,-0.00038308516377583146,0.007140285335481167
24280021667,-0.322564303874969,-9.71067237854004,-0.472493559122086,-0.003876401809975505,4.7464953240705654e-05,0.006898378953337669
24291078805,-0.318561404943466,-9.71203327178955,-0.465124577283859,-0.002284096786752343,0.0011788513511419296,0.00599828502163291
24324031352,-0.323164045810699,-9.72350788116455,-0.46714973449707,-0.00036748626735061407,0.0032029571011662483,0.002660173224285245
24335238695,-0.32515361905098,-9.70728206634522,-0.479302734136581,-0.002005100017413497,0.0017630690708756447,0.002914915094152093
24368403673,-0.327139288187027,-9.70966529846191,-0.466434389352799,-0.005964771844446659,-0.0010374850826337934,0.0030934272799640894
24507702350,-0.31437349319458,-9.70459270477295,-0.474345028400421,-0.002578304847702384,0.007492699194699526,0.004080840386450291
24557466268,-0.325964123010635,-9.71641254425049,-0.470895081758499,-6.002870577503927e-06,0.007301152218133211,0.0030621516052633524
24562991619,-0.331262171268463,-9.70258903503418,-0.472024738788605,0.0004779527080245316,0.007283559534698725,0.0037236264906823635
24574027061,-0.332234561443329,-9.71202373504639,-0.461863726377487,0.000153995948494412,0.006805403623729944,0.004256257321685553
24685588121,-0.31822606921196,-9.71809005737305,-0.467426419258118,-0.00214935839176178,0.0034910542890429497,0.004555613733828068
24857455730,-0.315078347921372,-9.71573162078858,-0.464822262525559,-0.0029559896793216467,0.0008352316217496991,0.0014830913860350847
24863026142,-0.318248122930527,-9.71504878997803,-0.47502675652504,-0.00195869617164135,-0.00047583674313500524,0.001639463473111391
24875982046,-0.319189071655273,-9.71133232116699,-0.478093564510345,-0.0007133129402063787,-0.0014016400091350079,0.002402219921350479
24885496616,-0.312035948038101,-9.72214508056641,-0.469699651002884,0.000536713341716677,-0.0016087288968265057,0.003135236445814371
24901803731,-0.318223595619202,-9.72012615203858,-0.467185944318771,0.0015799254179000854,-0.0012402308639138937,0.003296953160315752
24912479877,-0.322508096694946,-9.71844291687012,-0.466180264949799,0.002308378927409649,-0.0004543745890259743,0.0025622013490647078
24924086570,-0.322204679250717,-9.72384071350098,-0.466471672058105,0.0013585727429017425,-0.00031250526080839336,0.0026314808055758476
24935252666,-0.325306355953217,-9.73193073272705,-0.473661541938782,-0.000469451944809407,-0.00044253701344132423,0.0032670223154127598
24974132299,-0.324509590864182,-9.70932960510254,-0.472124934196472,-0.004787873476743698,-0.007739025168120861,0.005129481665790081
25414447307,-0.317412823438644,-9.71709632873535,-0.472656816244125,-0.005575515329837799,0.007731345482170582,0.001189028611406684
25597773075,-0.321617633104324,-9.71945381164551,-0.467110425233841,-0.0008010654710233212,0.005322521086782217,0.002506529912352562
25604102611,-0.327213287353516,-9.70865917205811,-0.459457755088806,-0.0010534425964578986,0.004075989592820406,0.0020449587609618902
25619980096,-0.318798273801804,-9.71304321289062,-0.46644514799118,-0.001864193705841899,0.0025709534529596567,0.0024791015312075615
25630365371,-0.317857921123505,-9.7130298614502,-0.471256852149963,-0.0029333538841456175,0.0013376196147873998,0.0038034045137465
25764390945,-0.31237056851387,-9.70492839813233,-0.473381906747818,0.0030952375382184982,0.003594782203435898,-0.001483905129134655
25964752674,-0.331975162029266,-9.7194414138794,-0.471135228872299,-0.003855627728626132,0.0013249445473775268,0.0035054113250225782
25975598096,-0.326162397861481,-9.70796489715576,-0.474542945623398,-0.002623802749440074,0.00020569571643136442,0.0025276888627558947
25981142997,-0.322507590055466,-9.72316551208496,-0.469601154327393,-0.0023457484785467386,-0.0012884412426501513,0.0017748231766745448
25992229700,-0.310924410820007,-9.71133899688721,-0.479397535324097,-0.0030282214283943176,-0.002488351659849286,0.0012722128303721547
26008858919,-0.313092708587646,-9.71538829803467,-0.472644239664078,-0.003906784579157829,-0.0029517572838813066,0.0009033487876877189
26264491796,-0.322536915540695,-9.72248649597168,-0.467896729707718,-0.0003148029209114611,-0.0002512830251362175,0.0004143680271226913
26475574493,-0.329334020614624,-9.70864391326904,-0.478936403989792,-0.005164528265595436,0.003815798321738839,0.0013063359074294567
26481098413,-0.325129002332687,-9.71100997924805,-0.473131418228149,-0.006519414950162172,0.004083964973688126,-0.000308965245494619
26492970705,-0.324629575014114,-9.71505641937256,-0.469574689865112,-0.007737427484244108,0.004586046561598778,-0.0016392434481531382
26611115694,-0.324583977460861,-9.71641445159912,-0.468216001987457,0.00012649713607970625,0.004931775387376547,0.005736787337809801
26625608444,-0.317677170038223,-9.71033096313477,-0.47249361872673,0.00010433145507704467,0.0030008757021278143,0.004376713652163744
26625640869,-0.321727365255356,-9.71440505981445,-0.462293893098831,-0.0005126589676365256,0.0007093553431332111,0.003166154259815812
26630955934,-0.322558850049973,-9.71101951599121,-0.467122197151184,-0.0014113867655396461,-0.0010129819856956601,0.0025298823602497578
26881012439,-0.313825577497482,-9.71472072601319,-0.467356353998184,0.006078802514821291,0.001936020446009934,0.005390116944909096
26975643634,-0.319293767213821,-9.72046089172363,-0.47383326292038,-0.00021972315153107047,0.004530208185315132,0.0059950281865894794
27125464200,-0.322287440299988,-9.71135234832764,-0.471500366926193,-0.003465365618467331,0.00027022912399843335,0.0032596136443316936
27131046772,-0.32288646697998,-9.71641731262207,-0.465791761875153,-0.006257977802306414,-0.0008211230742745101,0.0012060735607519746
27142254352,-0.330876260995865,-9.71134757995605,-0.470767825841904,-0.008253420703113079,-0.0014439855003729463,-0.00026099165552295744
27164231777,-0.326423615217209,-9.72146511077881,-0.473161190748215,-0.00915180891752243,-0.0014492132468149066,-0.0006757932715117931
27170186042,-0.325912028551102,-9.71810340881348,-0.472460269927979,-0.00914561003446579,-0.001005404512397945,-9.485438204137608e-05
27181445837,-0.316447138786316,-9.71810245513916,-0.467857241630554,-0.008605959825217724,-0.0005487001035362482,0.0009770316537469625
27403782606,-0.330993264913559,-9.7137041091919,-0.476470232009888,-0.0027184467762708664,0.005286961793899536,0.005810591857880354
27486494302,-0.327974230051041,-9.71203136444092,-0.471115201711655,-0.005033152177929878,0.001292394706979394,0.0012068735668435693
27492078542,-0.319276243448258,-9.71336650848389,-0.47428423166275,-0.002807735465466976,0.0024066856130957603,0.00283478619530797
27503215789,-0.327356845140457,-9.71235656738281,-0.474479049444199,-0.000682417827192694,0.0031304359436035156,0.003942308947443962
27542382240,-0.32868304848671,-9.72586154937744,-0.472761332988739,-0.00034561881329864264,0.003561639226973057,0.0024071880616247654
27547601938,-0.319887101650238,-9.70324230194092,-0.475618422031403,-0.0015736442292109132,0.0036489623598754406,0.0012322603724896908
27552699804,-0.318196564912796,-9.71809005737305,-0.476266175508499,-0.002805291675031185,0.003444681176915765,0.00024385197320953012
27914251327,-0.324270099401474,-9.72519302368164,-0.462467700242996,-0.0006607645191252232,0.002576751634478569,0.004697379190474749
27926593542,-0.327638566493988,-9.71406173706055,-0.464346259832382,0.0005692242993973196,0.0009483002359047532,0.005794101860374212
27964359760,-0.319178313016892,-9.71269416809082,-0.468181818723679,-0.0009244291577488184,-0.001439585699699819,0.00816477369517088
28042067050,-0.328902840614319,-9.71304130554199,-0.46923378109932,0.0021376071963459253,0.00541613157838583,-0.00024864033912308514
28103197097,-0.314311176538467,-9.71236610412598,-0.470843493938446,-0.0030930819921195507,-0.0003530061221681535,0.0018577573355287313
28236855268,-0.310265213251114,-9.71372604370117,-0.464024215936661,-0.004560757428407669,0.00675992900505662,0.00496932165697217
28403117895,-0.321180284023285,-9.71336650848389,-0.471984416246414,-0.0004005002265330404,-0.0008643617038615048,0.0016259565018117428
28414340972,-0.321296602487564,-9.7147274017334,-0.468775779008865,0.00010620223474688828,-0.0016804194310680032,0.0021274781320244074
28425311088,-0.323529601097107,-9.72382831573487,-0.474403202533722,-0.00026500807143747807,-0.001515540643595159,0.002845920156687498
28612485885,-0.323957949876785,-9.71775913238526,-0.474769711494446,-0.004610913805663586,0.0009944905759766698,0.0064956266433000565
28631024122,-0.329632043838501,-9.70764636993408,-0.467755734920502,-0.0058141229674220085,0.0010124953696504235,0.004889125935733318
28672098159,-0.325407177209854,-9.70963954925537,-0.480140179395676,-0.006864523980766535,0.001078447443433106,0.00296920258551836
28689771890,-0.324190318584442,-9.71944618225098,-0.467518150806427,-0.0076115988194942474,0.0013653433416038752,0.0012442958541214466
28725292205,-0.324530214071274,-9.71203708648682,-0.463706254959106,-0.007957342080771923,0.0018810000037774444,8.437880023848265e-05
28753366947,-0.315966844558716,-9.71708106994629,-0.466530680656433,-0.00671339500695467,0.0024784996639937162,0.0016813722904771566
28775636672,-0.328004270792008,-9.71775913238526,-0.475209683179855,-0.006215841509401798,0.0019728762563318014,0.003043639939278364
28786345005,-0.319290429353714,-9.70560741424561,-0.475170731544495,-0.005845550447702408,0.0011716088047251105,0.0040536257438361645
28980918884,-0.331052124500275,-9.71236801147461,-0.472350239753723,-0.008700072765350342,0.0005871051107533276,0.0017424104735255241
29153595447,-0.322961032390594,-9.71168804168701,-0.474113821983337,-0.006217548623681068,0.0012412306386977434,0.00380601454526186
29164115667,-0.324722409248352,-9.70628547668457,-0.475780010223389,-0.005706584546715021,0.001695916405878961,0.0038312082178890705
29213435649,-0.325229078531265,-9.71945190429688,-0.465263903141022,-0.009212367236614227,0.005491627845913172,0.0006624693633057177
29308626890,-0.327966183423996,-9.71067237854004,-0.474900513887405,-0.009295356459915638,0.0013095499016344547,0.0041474937461316586
29314210653,-0.336044877767563,-9.71473503112793,-0.465387791395187,-0.006559593603014946,0.0019519019406288862,0.0036280229687690735
29325624704,-0.323135733604431,-9.71033763885498,-0.46959188580513,-0.004477155394852161,0.0023997249081730843,0.003028561593964696
29389740467,-0.324305474758148,-9.71403694152832,-0.478965222835541,-0.00940319150686264,0.0027644310612231493,0.004416555631905794
29402282714,-0.317117512226105,-9.70695495605469,-0.475642263889313,-0.009052447974681854,0.001616265974007547,0.00304204854182899
29410176038,-0.330482125282288,-9.70324897766113,-0.47741025686264,-0.007868538610637188,0.000915196374990046,0.0009025537292473018
29415261268,-0.322603762149811,-9.70054817199707,-0.466159462928772,-0.0062709408812224865,0.001237438409589231,-0.0013691994827240705
29897490501,-0.323083221912384,-9.71337509155273,-0.466372758150101,-0.004348719026893377,0.005666203331202269,0.00352112902328372
29903128147,-0.326769888401031,-9.7262020111084,-0.47732001543045,-0.0042146784253418446,0.006617422681301832,0.0031919588800519705
29914174079,-0.325801908969879,-9.70764923095703,-0.467395216226578,-0.0040602064691483974,0.00665957061573863,0.003027929924428463
29925657272,-0.331616818904877,-9.71205043792725,-0.462470948696136,-0.004202350042760372,0.005560859572142363,0.002921846229583025
29936654090,-0.323278963565826,-9.72553443908691,-0.462736338376999,-0.004819742403924465,0.003741905326023698,0.003017816226929426
29947693347,-0.318462699651718,-9.71067523956299,-0.467776566743851,-0.005799232516437769,0.001820707693696022,0.003631188767030835
29953464269,-0.32720947265625,-9.70898246765137,-0.471930623054504,-0.00668581947684288,0.00021994850249029696,0.004799282643944025
29964160680,-0.319836974143982,-9.71607398986816,-0.468283474445343,-0.007005541119724512,-0.0006928236107341945,0.006079026963561773
30286807298,-0.333342760801315,-9.7012300491333,-0.466917812824249,-0.007815567776560783,0.006319738458842039,0.0012673710007220507
30297667741,-0.326994001865387,-9.71675682067871,-0.470744341611862,-0.008695453405380249,0.007671334780752659,0.001363065093755722
30625134944,-0.334512025117874,-9.706298828125,-0.466691642999649,-0.011270955204963684,0.006860052701085806,0.003317928873002529
30636296987,-0.332358837127686,-9.70899486541748,-0.473387628793716,-0.012334929779171944,0.007632282096892595,0.003786470741033554
30641788959,-0.330318301916122,-9.71337509155273,-0.47258123755455,-0.012991740368306637,0.007923354394733906,0.0037128389813005924
30664342164,-0.324905604124069,-9.71135807037354,-0.466104090213776,-0.01325530931353569,0.0077049946412444115,0.0032317342702299356
30686176300,-0.326015889644623,-9.71574306488037,-0.464817076921463,-0.011310398578643799,0.005131607875227928,0.0023361288476735353
30741676330,-0.330384492874146,-9.71404933929444,-0.467954486608505,-0.008206415921449661,0.0064648231491446495,0.006254267413169146
30752894163,-0.317760109901428,-9.71472835540772,-0.459616631269455,-0.009382388554513454,0.006596953608095646,0.006421838887035847
30764021396,-0.332663297653198,-9.71101951599121,-0.467403084039688,-0.010870881378650665,0.005612896289676428,0.006583485286682844
30776277065,-0.313327699899674,-9.70863151550293,-0.479696691036224,-0.011770404875278473,0.003998639993369579,0.006835672073066235
31225368976,-0.323203474283218,-9.70865917205811,-0.467098593711853,-0.014502603560686111,0.003356803208589554,-0.00012485470506362617
31364058971,-0.329619914293289,-9.71305179595947,-0.46136024594307,-0.012312538921833038,-0.0014258732553571463,0.003478613216429949
31375195264,-0.327373385429382,-9.71708869934082,-0.464611351490021,-0.01265663094818592,-0.0017688001971691847,0.0041696676053106785
31386813879,-0.329218327999115,-9.7133846282959,-0.474702000617981,-0.013498421758413315,-0.0016140672378242016,0.005025000311434269
31392280578,-0.339560598134995,-9.71102809906006,-0.470430225133896,-0.014139445498585701,-0.0011056892108172178,0.005828854627907276
31403111696,-0.319593459367752,-9.71505641937256,-0.471779763698578,-0.01421466376632452,-0.00034353273804299533,0.006184636149555445
31419768095,-0.331512451171875,-9.70291233062744,-0.468019336462021,-0.013729224912822247,0.0006145418738014996,0.005845498759299517
31425144672,-0.335943967103958,-9.7140417098999,-0.472267955541611,-0.012805141508579254,0.0017556635430082679,0.0049529182724654675
31686377048,-0.331684559583664,-9.70258617401123,-0.465695887804031,-0.016498593613505363,0.0001211240014526993,0.002220873022451997
31697779655,-0.338971793651581,-9.70764255523682,-0.473639011383057,-0.01606404408812523,6.0671274695778266e-05,0.0026006896514445543
31702385902,-0.320982545614243,-9.71504402160645,-0.477667301893234,-0.01555695477873087,0.0010244769509881735,0.0032333056442439556
31708965301,-0.325656354427338,-9.71236038208008,-0.474792569875717,-0.014960887841880322,0.002728790510445833,0.003619940485805273
31798358678,-0.339528322219849,-9.7137336730957,-0.462857455015183,-0.013031243346631527,0.006751471199095249,0.0007911871653050184
32030923366,-0.335602641105652,-9.71609306335449,-0.466279774904251,-0.015130151994526386,-0.002753846812993288,0.001958932727575302
32058553695,-0.325043588876724,-9.70763111114502,-0.477591723203659,-0.013800865039229393,-0.0024393093772232533,0.003237293567508459
32067244768,-0.331142038106918,-9.71471786499023,-0.473958343267441,-0.012813020497560501,-0.0016598465153947473,0.004390968009829521
32075928211,-0.331852793693542,-9.71437549591065,-0.471663475036621,-0.012123871594667435,-0.0004829718091059476,0.004893507808446884
32086439132,-0.329858809709549,-9.71034717559815,-0.472477585077286,-0.011643937788903713,0.0008669747621752322,0.004457017872482538
32100146770,-0.334869116544724,-9.7147274017334,-0.470784395933151,-0.011381655931472778,0.002076133154332638,0.003311507636681199
32108626127,-0.343055427074432,-9.71303749084473,-0.474737852811813,-0.011450614780187607,0.0029252900276333094,0.0019729246851056814
32714245796,-0.333374321460724,-9.71573638916016,-0.476487219333649,-0.010553209111094475,0.005546508822590113,0.000459096219856292
32720781803,-0.328806787729263,-9.71201038360596,-0.478997319936752,-0.010294025763869286,0.00407224940136075,0.0009123118361458182
32970326185,-0.329905688762665,-9.70561027526855,-0.477173745632172,-0.013679178431630135,0.0024716979824006557,0.0062109725549817085
33136211633,-0.329902499914169,-9.70966529846191,-0.474812835454941,-0.005570496432483196,0.006047443952411413,0.0003799639525823295
33141748189,-0.316186308860779,-9.71706485748291,-0.480788350105286,-0.006079111248254776,0.004713202361017466,0.0014585504541173577
33152885675,-0.322875171899796,-9.70729446411133,-0.474610328674316,-0.007297781761735678,0.003957662731409073,0.0017995660891756415
33165169000,-0.324375003576279,-9.71303462982178,-0.471446186304092,-0.008209368214011192,0.0037171277217566967,0.0011958585819229484
33509207010,-0.332035064697266,-9.70831108093262,-0.469928413629532,-0.009000512771308422,0.005162837449461222,8.816795161692426e-05
33581988573,-0.3294877409935,-9.70932388305664,-0.469137877225876,-0.012158771045506,0.002461379626765847,0.001421928871423006
33642922878,-0.336133927106857,-9.7191104888916,-0.47086089849472,-0.009640530683100224,-0.0001652417704463005,-0.0016212868504226208
33653570175,-0.333960264921188,-9.72114562988281,-0.463724225759506,-0.00982753373682499,-0.00013023438805248588,-0.0008820755174383521
33664719581,-0.335109710693359,-9.7177619934082,-0.474111467599869,-0.010641460306942463,0.00025278504472225904,0.0003227817069273442
33683059692,-0.337981015443802,-9.7221565246582,-0.464787423610687,-0.012000033631920815,0.00038094783667474985,0.001796694821678102
33686887025,-0.316875129938126,-9.70594882965088,-0.4701007604599,-0.013558672741055489,-5.391532977228053e-05,0.0032443483360111713
33703568696,-0.332601517438889,-9.72620391845703,-0.469798982143402,-0.01469493843615055,-0.0008401776431128383,0.004398972261697054
33714861869,-0.330949783325195,-9.72384834289551,-0.464242607355118,-0.014806518331170082,-0.0016124052926898003,0.0051223817281425
33725753307,-0.317197114229202,-9.70728588104248,-0.475043892860413,-0.013794434256851673,-0.002274837577715516,0.005421631969511509
33736896991,-0.324221014976501,-9.71101570129395,-0.473174273967743,-0.011966760270297527,-0.002748188329860568,0.005344837438315153
34720138549,-0.224665507674217,-9.70850849151612,-0.588931560516357,0.04419894143939018,-0.02786843851208687,-0.11893012374639511
34732881307,-0.260304570198059,-9.71323299407959,-0.586870431900024,0.05933641642332077,-0.022174568846821785,-0.12164527177810669
34753344535,-0.30427947640419,-9.72101783752441,-0.58410370349884,0.08177987486124039,-0.006972096860408783,-0.12098368257284164
34766067028,-0.312970727682114,-9.71729564666748,-0.582869589328766,0.08158671855926514,-0.000998534495010972,-0.11842593550682068
35036700963,-0.363830864429474,-9.71367073059082,-0.511738657951355,-0.04433414712548256,-0.005179046653211117,-0.013407326303422451
35114607810,-0.307687938213348,-9.71198272705078,-0.499975174665451,-0.02065473049879074,-0.009376988746225834,-0.04039190337061882
35125712871,-0.286857038736343,-9.71636772155762,-0.493892014026642,-0.008189570158720016,-0.008189259096980095,-0.03998302295804024
35222225904,-0.324525862932205,-9.68100166320801,-0.439801633358002,0.011634220369160175,0.01429247111082077,-0.017567142844200134
35231180191,-0.281746625900269,-9.66106033325195,-0.44407057762146,0.0018102281028404832,0.014355110004544258,-0.01609872654080391
35242621421,-0.265043526887894,-9.6569995880127,-0.447319090366364,-0.006190971005707979,0.01573055610060692,-0.01111832819879055
35253745794,-0.267155051231384,-9.6934289932251,-0.456336975097656,-0.008004754781723022,0.020227834582328796,-0.002103417180478573
35264614343,-0.264970868825913,-9.72109031677246,-0.463723480701447,-0.0013938106130808592,0.027309760451316833,0.008915504440665245
35275543689,-0.255962461233139,-9.72209167480469,-0.470788270235062,0.012423403561115265,0.03370417654514313,0.01862114667892456
35281243085,-0.24549774825573,-9.68192863464355,-0.465245068073273,0.029779532924294472,0.035644084215164185,0.024182533845305443
35292438507,-0.252813249826431,-9.68392086029053,-0.488208502531052,0.046703800559043884,0.03209737688302994,0.02443927899003029
35833033084,-0.350206434726715,-9.72288227081299,-0.448381543159485,-0.049019619822502136,0.003326271427795291,0.036224205046892166
35862530946,-0.333523035049438,-9.72084712982178,-0.456477344036102,-0.04815244674682617,0.0025795248802751303,0.03651129826903343
35881330728,-0.349477827548981,-9.70600128173828,-0.458370804786682,-0.042830757796764374,0.0015014747623354197,0.033884577453136444
35887228488,-0.325154840946198,-9.69348907470703,-0.461101591587067,-0.03535474091768265,0.0002104225568473339,0.029618268832564354
35907208204,-0.311395794153214,-9.70799922943115,-0.45951247215271,-0.02735537849366665,-0.00020389381097629666,0.024463843554258347
35926072120,-0.307971656322479,-9.69248867034912,-0.458998084068298,-0.019790854305028915,0.001189523609355092,0.01939159259200096
35926105022,-0.319576859474182,-9.71645355224609,-0.458844482898712,-0.012688769027590752,0.004367104731500149,0.015287613496184349
35945114374,-0.33334743976593,-9.69047069549561,-0.458483070135117,-0.006137121468782425,0.00836923997849226,0.012700619176030159
36005749464,-0.370346873998642,-9.70602798461914,-0.437837094068527,-0.0028887256048619747,0.015597869642078876,0.01431536115705967
36170275211,-0.344595044851303,-9.71208286285401,-0.440768241882324,-0.0012225190876051784,0.005660711787641048,0.0069458032958209515
36181262969,-0.343400895595551,-9.72017574310303,-0.447433203458786,-0.005923045799136162,0.005421945825219154,0.008123822510242462
36549485445,-0.338295191526413,-9.70291233062744,-0.464572072029114,-0.0027347682043910027,0.005596760660409927,0.01290692575275898
36562057495,-0.342272579669952,-9.72081851959229,-0.452004015445709,-0.005096315871924162,0.005989324767142534,0.01515195518732071
36576979637,-0.345393091440201,-9.72116565704346,-0.450201660394669,-0.008337246254086494,0.005688129924237728,0.01698724925518036
36581798315,-0.343487441539764,-9.72115230560303,-0.45263484120369,-0.012299065478146076,0.004617844242602587,0.01818058080971241
36592308759,-0.338091254234314,-9.71642589569092,-0.454009711742401,-0.01658041588962078,0.002737315371632576,0.018953785300254822
36604486703,-0.336547046899796,-9.71575164794922,-0.451441377401352,-0.020445778965950012,0.0003685516130644828,0.019550343975424767
36610837936,-0.335410416126251,-9.72385692596436,-0.454490959644318,-0.023055726662278175,-0.0018557971343398094,0.020046167075634003
36620304346,-0.332366973161697,-9.70595645904541,-0.459561318159103,-0.023874009028077126,-0.0033871710766106844,0.02038523368537426
36638928890,-0.332172811031342,-9.71609306335449,-0.455645054578781,-0.022899579256772995,-0.0039168186485767365,0.02040131203830242
36638958692,-0.327756196260452,-9.70020771026612,-0.463628083467484,-0.020582959055900574,-0.00328431255184114,0.019909799098968506
36656857013,-0.32028192281723,-9.71167659759522,-0.465782582759857,-0.01753135584294796,-0.0014941429253667593,0.0188089981675148
36716964483,-0.323327541351318,-9.70730972290039,-0.463342487812042,-0.014204337261617184,0.0011627376079559326,0.017081644386053085
36719671249,-0.330989331007004,-9.71439838409424,-0.458844006061554,-0.01091484259814024,0.004057880956679583,0.014885772950947285
36737559795,-0.333562254905701,-9.70561218261719,-0.461212068796158,-0.008117576129734516,0.006426797714084387,0.012676752172410488
36754899740,-0.35006919503212,-9.70968341827393,-0.459607928991318,-0.006537964101880789,0.007780987303704023,0.011037103831768036
36795841693,-0.334090352058411,-9.71170806884766,-0.456991881132126,-0.006900467909872532,0.008113942109048367,0.010344957932829857
36801041126,-0.338555693626404,-9.71170425415039,-0.455066710710526,-0.009358450770378113,0.00770368380472064,0.010662929154932499
36806909084,-0.33329376578331,-9.71137619018555,-0.462852567434311,-0.013131244108080864,0.006852320861071348,0.011797470971941948
36812058687,-0.335661113262177,-9.71472549438477,-0.469361662864685,-0.01687191054224968,0.005813318770378828,0.013259557075798512
38196385383,-0.325119525194168,-9.71486282348633,-0.461467266082764,-0.0092528210952878,0.00027618426247499883,0.00591962318867445
38202969789,-0.330855935811997,-9.71011924743652,-0.464349657297134,-0.008888627402484417,0.0006762355915270746,0.0046914974227547646
38213152885,-0.324736416339874,-9.70945644378662,-0.464279353618622,-0.00853903777897358,0.000888531154487282,0.004178046248853207
38224217891,-0.329663544893265,-9.70910835266113,-0.46709355711937,-0.008229866623878479,0.001178366132080555,0.004644406493753195
38235268115,-0.327097237110138,-9.70944213867188,-0.470726013183594,-0.008048114366829395,0.0018409381154924631,0.005806575063616037
38244728565,-0.325785398483276,-9.70944690704346,-0.46496993303299,-0.008028763346374035,0.002928462577983737,0.007033464498817921
38274177312,-0.331362545490265,-9.70573997497559,-0.463664621114731,-0.008632714860141277,0.006830008700489998,0.00800326094031334
38713112115,-0.322100877761841,-9.70370578765869,-0.466943114995956,-0.003747933777049184,0.0032116312067955732,0.007203541696071625
38718586206,-0.32954466342926,-9.70338153839112,-0.464496105909348,-0.0039111170917749405,0.004323170520365238,0.006123006343841553
38724344253,-0.315925240516663,-9.70741271972656,-0.469749003648758,-0.003964857663959265,0.005153763573616743,0.005215454380959272
38735206604,-0.321981102228165,-9.70741271972656,-0.472145706415176,-0.004008602816611528,0.006046150345355272,0.0046927896328270435
38785220623,-0.321032255887985,-9.7107982635498,-0.465293377637863,-0.006633243057876825,0.006860496010631323,0.003812286304309964
39087749004,-0.311946630477905,-9.70504283905029,-0.46990892291069,-0.0017639456782490015,0.0015816661762073636,0.007402765564620495
39140764474,-0.320004791021347,-9.71787071228027,-0.474386096000671,-0.003459563944488764,0.001546048210002482,0.0009093403932638466
39152265310,-0.325451880693436,-9.70674133300781,-0.46841487288475,-0.0032802524510771036,0.0005303306970745325,0.000332312862155959
39163538217,-0.323288291692734,-9.71417713165283,-0.465301603078842,-0.002917726058512926,-0.00032275926787406206,0.0003643069649115205
39174151420,-0.330160290002823,-9.71316146850586,-0.466840326786041,-0.00268876226618886,-0.000556116399820894,0.0010351974051445723
39179971933,-0.332213371992111,-9.7155237197876,-0.464943945407867,-0.0029600150883197784,-5.1381612138357013e-05,0.002283216454088688
39596333503,-0.334035336971283,-9.71483135223389,-0.479070782661438,-0.0048903245478868484,0.007753109559416771,0.0036616509314626455
39640616178,-0.317711055278778,-9.71247863769531,-0.469942808151245,-0.003454639110714197,0.00768154114484787,0.004620739258825779
39640645027,-0.334735900163651,-9.70910549163819,-0.469907611608505,-0.0027834537904709578,0.0070878383703529835,0.004972619470208883
39651763200,-0.327063769102097,-9.70607566833496,-0.461998671293259,-0.0030627278611063957,0.006184797268360853,0.0045838551595807076
39663194894,-0.3174067735672,-9.70134925842285,-0.466382771730423,-0.004191147163510323,0.005408193916082382,0.003936432767659426
39674129009,-0.320377260446549,-9.71617698669434,-0.473980754613876,-0.0056355358101427555,0.005228719208389521,0.0036457458045333624
39685592889,-0.333765119314194,-9.70945167541504,-0.462963283061981,-0.006624320987612009,0.005689614452421665,0.003870896529406309
40230532646,-0.322395533323288,-9.71214580535889,-0.47192507982254,-0.00739002600312233,-0.0016479622572660446,0.0014423110987991095
40242108583,-0.322683840990067,-9.71619510650635,-0.465797811746597,-0.0063521540723741055,-0.002314941957592964,0.0025661219842731953
40363585710,-0.321928650140762,-9.71539974212647,-0.465586274862289,-0.008684423752129078,-0.00035240533179603517,0.002280486049130559
40537675142,-0.325266420841217,-9.71203327178955,-0.466795414686203,-0.010693666525185108,-0.0006006635958328843,0.0032933310139924288
40552623271,-0.330451369285583,-9.71606826782227,-0.475530326366425,-0.009086808189749718,-0.0005186736234463751,0.002789522288367152
40564223766,-0.322286665439606,-9.71403884887695,-0.477024734020233,-0.007726685144007206,-0.00029994695796631277,0.0019063069485127926
40574707031,-0.325298309326172,-9.70764255523682,-0.469174295663834,-0.006871321238577366,7.712841033935547e-05,0.0009830599883571267
40580211400,-0.33447927236557,-9.70966529846191,-0.468191087245941,-0.006521193776279688,0.0006791567429900169,0.000235596060520038
40613513946,-0.329610228538513,-9.70965194702148,-0.476238965988159,-0.008386710658669472,0.004120077937841415,0.0007073476444929838
41031473159,-0.326322704553604,-9.71438503265381,-0.472554624080658,-0.009139600209891796,0.001963680610060692,-0.0017001661472022533
41136013031,-0.326048642396927,-9.7083330154419,-0.458956003189087,-0.006556026637554169,0.004545276984572411,0.003995941486209631
41148362159,-0.324403285980225,-9.70931625366211,-0.474810689687729,-0.007004765793681145,0.0026752331759780645,0.004669663496315479
41163839101,-0.322214037179947,-9.7160701751709,-0.470003992319107,-0.007360326126217842,0.0014336564345285296,0.0051405602134764194
41170013666,-0.320176720619202,-9.71505546569824,-0.473014503717423,-0.007372655440121889,0.001104880589991808,0.005303908605128527
41180695295,-0.323529481887817,-9.70797538757324,-0.47220966219902,-0.006869614589959383,0.0014616015832871199,0.0050025805830955505
41186325073,-0.327426254749298,-9.71741390228272,-0.479871779680252,-0.005914377048611641,0.0020939877722412348,0.00418868288397789
41197860240,-0.327842444181442,-9.72382545471191,-0.475815206766129,-0.004885716829448938,0.002631752286106348,0.002901555271819234
41207581043,-0.324129581451416,-9.70664310455322,-0.464947998523712,-0.00428363773971796,0.0027079673018306494,0.0012965594651177526
41213809490,-0.32901132106781,-9.71100807189941,-0.47910875082016,-0.00437943683937192,0.002221237402409315,-0.00021518998255487531
41652613878,-0.323121845722198,-9.71113014221191,-0.469563812017441,-0.008236733265221119,0.0041175344958901405,-0.0004237032262608409
41797686100,-0.326751559972763,-9.70977401733398,-0.47512823343277,-0.006212910637259483,0.0033385290298610926,0.0011150515638291836
41802768468,-0.332545161247253,-9.71078491210938,-0.474717974662781,-0.005694566760212183,0.003287635277956724,0.00025298912078142166
41814520120,-0.330004423856735,-9.71586227416992,-0.466857582330704,-0.005372172221541405,0.003541399259120226,-0.0005657563451677561
41853321790,-0.329450786113739,-9.7064094543457,-0.472000598907471,-0.008771458640694618,0.005083777010440826,-0.00036258980981074274
41863886356,-0.321309149265289,-9.72259616851807,-0.476751536130905,-0.008732913061976433,0.005606506485491991,-0.00013003167987335473
41875263690,-0.321989566087723,-9.71180152893066,-0.469424724578857,-0.00801315251737833,0.00606200797483325,-0.00015631063433829695
41880548477,-0.319265723228455,-9.71753787994385,-0.471832096576691,-0.006861013825982809,0.005969360005110502,-0.00031080740154720843
42274861335,-0.32455986738205,-9.71718883514404,-0.473227441310883,-0.005268532782793045,0.0016139124054461718,0.0012611346319317818
42299304246,-0.320785641670227,-9.70503997802734,-0.476594090461731,-0.006617189384996891,0.0014568769838660955,0.0013587651774287224
42391731977,-0.308622777462006,-9.71245574951172,-0.483895242214203,-0.003251756774261594,0.003118925029411912,-0.0001582572585903108
42774058818,-0.325323015451431,-9.71145820617676,-0.477996289730072,-0.007665842771530151,0.006423326209187508,-0.0006787119200453162
42785911798,-0.319441765546799,-9.69963932037354,-0.478795170783997,-0.0070050605572760105,0.008280639536678791,7.502038351958618e-05
42791812658,-0.321707874536514,-9.71314334869385,-0.47409799695015,-0.0061670090071856976,0.009145231917500496,0.0008395875338464975
43067991256,-0.324991911649704,-9.71922397613526,-0.470254331827164,-0.010261635296046734,0.0016930451383814216,0.002843790454789996
43074388504,-0.328298896551132,-9.71854019165039,-0.484061598777771,-0.008614308200776577,0.002211745362728834,0.0023902198299765587
43085611820,-0.322292059659958,-9.70438003540039,-0.472072005271912,-0.007156506180763245,0.0024394879583269358,0.0013381283497437835
43097473621,-0.329115152359009,-9.70202255249023,-0.459410667419434,-0.006212341599166393,0.002316460944712162,-6.108776869950816e-05
43124406337,-0.31571900844574,-9.71854496002197,-0.471249490976334,-0.00580218993127346,0.002358953934162855,-0.0011249614180997014
43152526378,-0.318091094493866,-9.71922016143799,-0.471216529607773,-0.0046618725173175335,0.005271045956760645,0.003313007764518261
43593514919,-0.322136282920837,-9.71955680847168,-0.475132882595062,-0.008283842355012894,0.0022957909386605024,0.0008878920343704522
43601467370,-0.330238193273544,-9.70943737030029,-0.478013932704926,-0.007582409773021936,0.0033359944354742765,0.00047270063078030944
43615417480,-0.318089127540588,-9.7090892791748,-0.481174468994141,-0.006925507448613644,0.004170669242739677,-0.000166309138876386
43624458074,-0.330561637878418,-9.71012306213379,-0.46879518032074,-0.006406858563423157,0.004551586229354143,-0.001057489775121212
43630170822,-0.327126532793045,-9.7188892364502,-0.473108470439911,-0.006064853630959988,0.0046017044223845005,-0.0020209206268191338
43641162633,-0.320449948310852,-9.71211624145508,-0.481006264686584,-0.005960411857813597,0.004413536284118891,-0.0026756387669593096
43652295112,-0.318436682224274,-9.71854591369629,-0.471055865287781,-0.006024508737027645,0.0039247008971869946,-0.0028234089259058237
44153595924,-0.322074055671692,-9.70875453948975,-0.475878208875656,-0.00459286430850625,0.0010667153401300311,0.00012609915575012565
44157897472,-0.323464304208756,-9.7111177444458,-0.47617506980896,-0.0032358327880501747,-0.00013684030272997916,0.0005979921552352607
44169847726,-0.326897323131561,-9.72159290313721,-0.472897291183472,-0.0021810848265886307,-0.00038056797347962856,0.0007562335231341422
44178084850,-0.334924817085266,-9.71923351287842,-0.466672152280808,-0.0018638856709003448,0.00013956680777482688,0.0005303259240463376
44216629028,-0.333694636821747,-9.72327041625977,-0.476362317800522,-0.007337912917137146,0.0014301725896075368,0.00048563184100203216
44311216115,-0.333413571119309,-9.71753025054932,-0.473502606153488,-0.000726407568436116,-0.0015727956779301167,-7.22457843949087e-05
44502591609,-0.3313108086586,-9.71617221832276,-0.48186331987381,-0.010228981263935566,-0.0006531567196361721,0.00045992297236807644
44513410091,-0.32273855805397,-9.71651554107666,-0.478251338005066,-0.010687441565096378,-0.0015159762697294354,0.0004232602659612894
44780078887,-0.323731124401093,-9.70673084259033,-0.471239149570465,-0.006579765118658543,0.0058815437369048595,0.0007827968802303076
44861490249,-0.326543569564819,-9.71110725402832,-0.482873022556305,-0.00688317883759737,0.0012061848537996411,0.001011991291306913
44875385761,-0.321735441684723,-9.71317291259766,-0.463256239891052,-0.007466075010597706,0.0008154497481882572,0.0011406481498852372
44908267021,-0.314996629953384,-9.70706462860108,-0.474810600280762,-0.007402464281767607,0.0007237839163281024,0.0009439041023142636
44913024187,-0.321467161178589,-9.70031929016113,-0.480025202035904,-0.0065331836231052876,0.001132705481722951,0.0004928995622321963
44963241815,-0.331924945116043,-9.71348190307617,-0.471145391464233,-0.00501558743417263,0.002265069866552949,-1.0652920536813326e-05
44974385738,-0.333016872406006,-9.71314430236816,-0.476081401109695,-0.0034959528129547834,0.004029305186122656,-0.0005235435091890395
44985785484,-0.324848920106888,-9.71650886535645,-0.481149464845657,-0.0028787092305719852,0.005806771107017994,-0.0010314597748219967
45002396583,-0.313313394784927,-9.70840740203858,-0.475697576999664,-0.005169298034161329,0.006568696349859238,-0.002221964066848159
46269225120,-0.322145760059357,-9.70739269256592,-0.483922928571701,-0.010801292024552822,0.0029091283213347197,-7.452801946783438e-05
46296828269,-0.326844573020935,-9.71382236480713,-0.471490353345871,-0.011606541462242603,0.004395332653075457,0.0001975917984964326
46317133426,-0.326893150806427,-9.71077060699463,-0.479740828275681,-0.012143528088927269,0.005593427456915379,-1.622386116650887e-05
46601037502,-0.327902674674988,-9.71078300476074,-0.474356055259705,-0.009797616861760616,0.004513056483119726,-0.0025340698193758726
46611924886,-0.329580068588257,-9.70976543426514,-0.478547722101212,-0.009181552566587925,0.0044045960530638695,-0.002959940582513809
46622777700,-0.321772634983063,-9.71382522583008,-0.473292857408524,-0.008704489096999168,0.004225973505526781,-0.002944871550425887
47031747341,-0.324520707130432,-9.70775318145752,-0.479405462741852,-0.004328521899878979,0.0011426409473642707,-0.002337450161576271
47047007560,-0.332230538129807,-9.71551704406738,-0.472269803285599,-0.004620574880391359,0.0018635127926245332,-0.0020411042496562004
47051740646,-0.326574683189392,-9.71685028076172,-0.473471075296402,-0.005609637591987848,0.003175475401803851,-0.0017719421302899718
47062256336,-0.319579303264618,-9.71618461608887,-0.468634009361267,-0.0069892797619104385,0.0043671876192092896,-0.0015184073708951473
47074006080,-0.318751513957977,-9.71010494232178,-0.468596875667572,-0.00815045740455389,0.0047711157239973545,-0.0011064220452681184
47084861278,-0.331757187843323,-9.70099925994873,-0.474436581134796,-0.008470145054161549,0.004336562007665634,-0.00036474582157097757
47097767353,-0.326522529125214,-9.70774364471436,-0.46981954574585,-0.007849909365177155,0.0037087935488671064,0.0006545004434883595
47240660429,-0.323547005653381,-9.71282005310059,-0.463940262794495,-0.0055041019804775715,0.003557257354259491,-0.0006376086384989321
47293502569,-0.317547827959061,-9.70907402038574,-0.480484634637833,-0.004909684415906668,0.004145161248743534,-0.00023666367633268237
47308259487,-0.326216757297516,-9.72124481201172,-0.476094186306,-0.004265171941369772,0.004963148385286331,0.00018091531819663942
47362741470,-0.325881212949753,-9.70773983001709,-0.480099380016327,-0.003617300884798169,0.005494609475135803,0.0003232186718378216
48341507196,-0.315583676099777,-9.70841312408447,-0.476978629827499,-0.00031116517493501306,0.013725396245718002,-0.005711726378649473
48352609872,-0.325096219778061,-9.69525051116944,-0.481868952512741,-0.0008128156769089401,0.014050262980163097,-0.006365639623254538
48362213850,-0.327721565961838,-9.70300769805908,-0.478733658790588,-0.0019547492265701294,0.01406925916671753,-0.0062154545448720455
48489728450,-0.335035294294357,-9.71010971069336,-0.47107720375061,-0.001839299569837749,0.00713304802775383,-0.001572776585817337
48501600265,-0.309772521257401,-9.7114429473877,-0.482114970684052,-0.0009419125854037702,0.006074765231460333,-0.0024768197908997536
48512850284,-0.318713992834091,-9.71718311309815,-0.474746704101562,-0.0010407568188384175,0.004979810211807489,-0.0035290836822241545
48521104574,-0.323069363832474,-9.71550559997559,-0.477182686328888,-0.0016599401133134961,0.003921293653547764,-0.004360009916126728
48635245323,-0.327837616205216,-9.70977020263672,-0.474853217601776,-0.0028006911743432283,4.30934278483619e-06,-0.0039976127445697784
49257162094,-0.317797034978867,-9.74251079559326,-0.478938698768616,-0.0196000374853611,0.024000395089387894,-0.013316702097654343
49258606910,-0.31716725230217,-9.73945236206055,-0.496742278337479,-0.015150214545428753,0.016848064959049225,-0.009505572728812695
49491469383,-0.289142698049545,-9.69179725646973,-0.518860161304474,0.01891825720667839,0.021474573761224747,-0.05771539732813835
49612021923,-0.316874712705612,-9.7228946685791,-0.495891004800797,-0.01016655471175909,-0.011756903491914272,-0.015063926577568054
49732421875,-0.328165829181671,-9.70328903198242,-0.513524115085602,0.011117740534245968,0.013614078052341938,-0.04616030305624008
49742837905,-0.344142466783524,-9.70937728881836,-0.509649693965912,0.009811081923544407,0.018780412152409554,-0.047406718134880066
49903570175,-0.333382993936539,-9.7188663482666,-0.494186669588089,-0.007404314819723368,-0.006166741251945496,-0.012474428862333298
50077330112,-0.341717004776001,-9.70099830627441,-0.488898247480393,-0.03688183054327965,0.0010429766261950135,-0.00125571945682168
50088617086,-0.319983661174774,-9.71042346954346,-0.488368034362793,-0.03990355134010315,0.004284621216356754,-0.0008882474503479898
50095171213,-0.324704140424728,-9.72022724151612,-0.483111143112183,-0.03889033943414688,0.007455713115632534,-0.0029951194301247597
50311948060,-0.380469441413879,-9.71218204498291,-0.457857042551041,-0.058326102793216705,0.016046805307269096,0.003164601745083928
50551155328,-0.331636160612106,-9.71957206726074,-0.448148220777512,-0.014264877885580063,0.01708327792584896,0.026308473199605942
50559865713,-0.331056088209152,-9.71248531341553,-0.452016562223435,-0.01719971001148224,0.014319275505840778,0.031045900657773018
50569623708,-0.308697819709778,-9.7100887298584,-0.468768119812012,-0.018108824267983437,0.011259893886744976,0.031296323984861374
50580419778,-0.298043847084045,-9.7219181060791,-0.457736045122147,-0.01670137606561184,0.008049938827753067,0.02817596308887005
50588515520,-0.289051502943039,-9.70907878875733,-0.464887261390686,-0.012580673210322857,0.005031421780586243,0.02316921390593052
50644878625,-0.282919973134995,-9.69996738433838,-0.463946759700775,-0.005536558106541634,0.002627842826768756,0.017746498808264732
51218989849,-0.299871265888214,-9.7077522277832,-0.476269602775574,0.0027839604299515486,0.005425971932709217,0.003275143215432763
51229948282,-0.319330275058746,-9.71652984619141,-0.473257422447205,0.004074451979249716,0.005678409244865179,0.002415483584627509
51509028911,-0.216922834515572,-9.67357349395752,-0.511930406093598,0.12820932269096375,0.03200093284249306,-0.08213833719491959
51509063720,-0.242294624447823,-9.70732593536377,-0.510327577590942,0.1358804553747177,0.03420897573232651,-0.08703990280628204
51510261058,-0.30258247256279,-9.71683120727539,-0.475348770618439,0.13597919046878815,0.03461305797100067,-0.08453980833292007
51510291099,-0.324136763811112,-9.74387359619141,-0.457813739776611,0.12664484977722168,0.032433394342660904,-0.0742717757821083
51511593341,-0.341806024312973,-9.74153423309326,-0.442478626966476,0.10695907473564148,0.026497144252061844,-0.05727570131421089
51518167734,-0.343326479196549,-9.74861812591553,-0.440387696027756,0.07832162827253342,0.01636921428143978,-0.0357118658721447
51529906272,-0.333579123020172,-9.74661636352539,-0.429555922746658,0.044953811913728714,0.003105798037722707,-0.012540291994810104
52194064617,-0.304425001144409,-9.70065402984619,-0.479484081268311,0.0012888762867078185,0.003997919149696827,0.004328958224505186
52199597358,-0.297715038061142,-9.69759941101074,-0.483778595924377,0.007004293613135815,0.00719513650983572,-0.0011428107973188162
52210536241,-0.311141759157181,-9.70977306365967,-0.468883484601975,0.011444390751421452,0.010353283025324345,-0.005754297599196434
52221716642,-0.321867167949677,-9.7131462097168,-0.463535070419312,0.014361416921019554,0.012941044755280018,-0.008591488935053349
52232773303,-0.321025937795639,-9.71451663970947,-0.461288213729858,0.01533984113484621,0.014187898486852646,-0.008908825926482677
52281973838,-0.351068437099457,-9.72024536132812,-0.460292398929596,-0.008505413308739662,-0.0004476150206755847,0.014661653898656368
52550330162,-0.319961756467819,-9.71921920776367,-0.475560367107391,-0.008892114274203777,0.0028266531880944967,0.0080339927226305
52558912277,-0.318666398525238,-9.71786785125733,-0.478877395391464,-0.004265561234205961,0.0017455649795010686,0.005720849614590406
52905708551,-0.333381623029709,-9.70540046691895,-0.467646062374115,-0.016461091116070747,-0.0019936044700443745,0.009188715368509293
53062182426,-0.328740268945694,-9.70943546295166,-0.472202837467194,-0.008638576604425907,0.002798239002004266,0.006860645022243261
53070225477,-0.335255205631256,-9.71113777160645,-0.471176356077194,-0.011129779741168022,0.0017997229006141424,0.006124033126980066
53079468965,-0.329144448041916,-9.70809745788574,-0.46722075343132,-0.01349645759910345,0.001266703475266695,0.00532299280166626
53091488361,-0.328431814908981,-9.70674705505371,-0.47223424911499,-0.015059970319271088,0.001541562145575881,0.004592233337461948
53101198196,-0.325248241424561,-9.71011638641358,-0.471114456653595,-0.015436752699315548,0.002626951551064849,0.0039983270689845085
53115973472,-0.319043397903442,-9.71449756622315,-0.468908101320267,-0.014542357996106148,0.004191110841929913,0.003543640486896038
53143680810,-0.312659859657288,-9.70876693725586,-0.471473395824432,-0.006274393294006586,0.006381840445101261,0.0031714937649667263
53400860548,-0.325102180242539,-9.72429370880127,-0.468334823846817,-0.0022084719967097044,-0.002157868817448616,0.0012460933066904545
53713780641,-0.322940081357956,-9.71413516998291,-0.484081298112869,-0.006842640694230795,0.005507476162165403,0.0009873653762042522
53801192998,-0.328199505805969,-9.70505046844483,-0.472735792398453,-0.01248630229383707,0.007328871171921492,-0.001667116885073483
53813115358,-0.32183051109314,-9.71246242523194,-0.472666651010513,-0.013376723974943161,0.0076408083550632,-0.0005393121973611414
54065447568,-0.330473959445953,-9.72394752502441,-0.47190123796463,-0.0018647091928869486,-0.0013127099955454469,0.006904562469571829
54070236444,-0.322389006614685,-9.70976638793945,-0.477507531642914,-0.0007354111294262111,-0.001085180789232254,0.0069282203912734985
54081446886,-0.325797587633133,-9.72361087799072,-0.476101517677307,-0.0008804293465800583,-0.001674163737334311,0.006168752443045378
54092787027,-0.32114577293396,-9.71043968200684,-0.475193649530411,-0.002104757819324732,-0.0025643755216151476,0.004584821872413158
54192725419,-0.318271994590759,-9.71518135070801,-0.465058207511902,-0.006821113638579845,-0.006927282549440861,0.004248181823641062
54205246925,-0.334285408258438,-9.71890068054199,-0.468526095151901,-0.008037207648158073,-0.006006042473018169,0.004458064679056406
54215007305,-0.331335246562958,-9.7212553024292,-0.467398524284363,-0.008560492657124996,-0.004728442523628473,0.004795119632035494
54490059614,-0.321946293115616,-9.70098495483398,-0.478257298469543,0.0013994730543345213,0.00935260858386755,-0.002313334960490465
54500317096,-0.329452514648438,-9.70335483551026,-0.474171906709671,0.002110288478434086,0.01188644114881754,-0.0023051458410918713
54512390136,-0.325080573558807,-9.71146202087402,-0.47244131565094,0.001194298267364502,0.013878130353987217,-0.0017364737577736378
54520248889,-0.32618635892868,-9.70639610290527,-0.473441183567047,-0.0009559981990605593,0.01476264651864767,-0.0010474584996700287
54533060312,-0.32646518945694,-9.71145439147949,-0.475921660661697,-0.0036286821123212576,0.014275630936026573,-0.00048503250582143664
54579994916,-0.327679812908173,-9.69930267333984,-0.479269504547119,-0.009328735060989857,0.004187956918030977,0.001027627382427454
54592110872,-0.320217937231064,-9.71382236480713,-0.469590038061142,-0.009526796638965607,0.004310223739594221,0.0011410716688260436
55347014188,-0.32643187046051,-9.71449756622315,-0.469515949487686,-0.007384911645203829,0.0029632109217345715,0.0030254560988396406
55352451086,-0.326451659202576,-9.70573139190674,-0.469912827014923,-0.0065905191004276276,0.004111279267817736,0.0031700560357421637
55359498739,-0.329504251480103,-9.70708751678467,-0.467492640018463,-0.0056681265123188496,0.004908902104943991,0.0036751385778188705
55373266696,-0.324248373508453,-9.71585369110108,-0.476756006479263,-0.0051235356368124485,0.005403191316872835,0.004341267980635166
55432915687,-0.321587443351746,-9.71247291564941,-0.470558285713196,-0.00783514603972435,0.004649020731449127,0.003608168102800846
55510830640,-0.327885329723358,-9.71146678924561,-0.466437220573425,-0.003511733841150999,0.003611423773691058,0.0033386757131665945
55520498275,-0.324433505535126,-9.71888637542725,-0.473668992519379,-0.0036025093868374825,0.002590745687484741,0.003619154216721654
55531338691,-0.340903490781784,-9.71113395690918,-0.472386658191681,-0.0040938411839306355,0.0010987413115799427,0.003684199182316661
55675364971,-0.325092196464539,-9.71112823486328,-0.470474511384964,-0.00448219757527113,0.0005670404061675072,0.00021561635367106646
55691730260,-0.321688979864121,-9.71315670013428,-0.467741161584854,-0.002860133070498705,-0.0007903891964815557,0.0003896657726727426
55707014799,-0.318732082843781,-9.71988773345947,-0.479614466428757,-0.0017798992339521646,-0.0010900627821683884,0.0009585371590219438
56322182178,-0.325247794389725,-9.72698593139648,-0.47496509552002,-0.005877252202481031,0.0024446335155516863,0.0020066648721694946
56334184885,-0.32208377122879,-9.70438098907471,-0.472231775522232,-0.00589611753821373,0.0010076899779960513,0.0022769339848309755
56345855474,-0.318779110908508,-9.6959400177002,-0.469973027706146,-0.005495412740856409,-2.9550363251473755e-05,0.002484144875779748
56501342296,-0.316334187984467,-9.70134353637695,-0.469653069972992,-0.0066682021133601665,0.0025951596908271313,0.001142947468906641
56681674480,-0.324600040912628,-9.71483325958252,-0.474763512611389,-0.005343532655388117,0.0017949644243344665,0.0031577174086123705
56695301771,-0.322233885526657,-9.70709133148194,-0.470286011695862,-0.005256169009953737,0.002769981976598501,0.003908616025000811
56702820301,-0.331496179103851,-9.70776462554932,-0.467479050159454,-0.005002200603485107,0.004139856901019812,0.003751827171072364
56776199102,-0.326241463422775,-9.70403957366944,-0.470377266407013,-0.00762893445789814,0.0073037222027778625,0.00048567578778602183
56784893751,-0.342341780662537,-9.71754455566406,-0.468334823846817,-0.007059799507260323,0.007622179575264454,0.0009214631281793118
