Timestamp,IMU_Raw_x,IMU_Raw_y,IMU_Raw_z,IMU_Linear_Acc_X,IMU_Linear_Acc_Y,IMU_Linear_Acc_Z
1219690799,-0.327128261327744,-9.71247673034668,-0.463607341051102,-0.003262150567024946,-0.01341157965362072,0.010641450993716717
1229547500,-0.329868167638779,-9.708740234375,-0.476497501134872,-0.0036575067788362503,-0.011998503468930721,0.01139199361205101
1239385604,-0.319971561431885,-9.71652221679688,-0.473281264305115,-0.003912108950316906,-0.010565466247498989,0.011487736366689205
1279773235,-0.328958094120026,-9.7067461013794,-0.459321647882462,-0.00022107508266344666,-0.013286984525620937,0.00564007880166173
1289690017,-0.327927708625793,-9.71687507629395,-0.46977373957634,8.890132448868826e-05,-0.015465954318642616,0.005277327727526426
1299778699,-0.331380426883698,-9.71786499023438,-0.470945596694946,-0.0004095385957043618,-0.016622323542833328,0.006386196706444025
1309946060,-0.331498056650162,-9.7091064453125,-0.464218497276306,-0.0013942229561507702,-0.016607798635959625,0.008370116353034973
1329341411,-0.327449768781662,-9.71247100830078,-0.47325724363327,-0.0036139769945293665,-0.014585926197469234,0.011616717092692852
1349393129,-0.327823847532272,-9.71483898162842,-0.466857254505157,-0.005129311233758926,-0.011855642311275005,0.01143365167081356
1368932485,-0.329444944858551,-9.71788311004639,-0.460126757621765,-0.004864988382905722,-0.01051110029220581,0.008906661532819271
1379567861,-0.323031574487686,-9.71483993530273,-0.466255187988281,-0.004215564113110304,-0.01101663988083601,0.008310610428452492
1391499996,-0.327278435230255,-9.7094316482544,-0.467127710580826,-0.0033875962253659964,-0.012250268831849098,0.00874134711921215
1400264501,-0.332202255725861,-9.70809650421143,-0.460851192474365,-0.002425492973998189,-0.013661338947713375,0.009981208480894566
1409817934,-0.323430985212326,-9.71382999420166,-0.46500289440155,-0.0014849966391921043,-0.014543737284839153,0.011519779451191425
1580312490,-0.32535594701767,-9.71146774291992,-0.469120413064957,-0.0008467616280540824,-0.01081885490566492,0.010770655237138271
1589935302,-0.333346575498581,-9.71856212615967,-0.465218245983124,-0.0007965439581312239,-0.011096878908574581,0.009461216628551483
1600079298,-0.328966975212097,-9.703688621521,-0.475984483957291,-0.0009245256660506129,-0.011219351552426815,0.00850461982190609
1609788417,-0.327673047780991,-9.7141637802124,-0.464753240346909,-0.001166751142591238,-0.011263583786785603,0.008042455650866032
1619625806,-0.325046002864838,-9.71112537384033,-0.468878358602524,-0.0014975108206272125,-0.011253389529883862,0.007964152842760086
1629491329,-0.343038350343704,-9.72192764282227,-0.465622901916504,-0.0018178181489929557,-0.011247853748500347,0.008156794123351574
1639310836,-0.329056531190872,-9.71449184417725,-0.474373757839203,-0.0022005129139870405,-0.011497048661112785,0.00855226069688797
1649638175,-0.320550620555878,-9.7239580154419,-0.458332538604736,-0.0028226010035723448,-0.012288052588701248,0.00902490597218275
1659358978,-0.322173237800598,-9.7094087600708,-0.478307723999023,-0.003460434265434742,-0.013672824017703533,0.00945038627833128
1669103622,-0.334917575120926,-9.71247386932373,-0.469915568828583,-0.0035394509322941303,-0.015304194763302803,0.009712045080959797
1680055618,-0.326710760593414,-9.71956062316895,-0.468988448381424,-0.002856842242181301,-0.016571948304772377,0.00962742604315281
1690018177,-0.334107309579849,-9.71620559692383,-0.458109378814697,-0.0018491713562980294,-0.017087385058403015,0.009186835028231144
1699820041,-0.319655418395996,-9.71112823486328,-0.465585112571716,-0.0010940684005618095,-0.016941076144576073,0.008801179938018322
1959832191,-0.326615631580353,-9.71855068206787,-0.461969435214996,-0.001338193891569972,-0.012838324531912804,0.009311500005424023
1969806432,-0.327077597379685,-9.71213912963867,-0.471820116043091,8.349943527719006e-05,-0.013128598220646381,0.00846887193620205
1980024576,-0.326564848423004,-9.71584320068359,-0.469984471797943,0.0012968141818419099,-0.01393155287951231,0.008416124619543552
1989674091,-0.337457001209259,-9.7064094543457,-0.469069868326187,0.001966137206181884,-0.014854773879051208,0.008875825442373753
2039338111,-0.325958669185638,-9.72058486938477,-0.459602892398834,-0.007551153656095266,-0.012233390472829342,0.008182044140994549
2049359798,-0.315831989049912,-9.73002052307129,-0.464745461940765,-0.00924843642860651,-0.012373693287372589,0.007612038869410753
2059120178,-0.324597418308258,-9.70435619354248,-0.475566446781158,-0.008957884274423122,-0.013681855984032154,0.0076361107639968395
2070007324,-0.338338553905487,-9.70335865020752,-0.471857756376267,-0.006616682279855013,-0.015715662389993668,0.00827398244291544
2079887390,-0.321993827819824,-9.71214294433594,-0.462309002876282,-0.003209279850125313,-0.01726682111620903,0.00901899952441454
2139933347,-0.314817488193512,-9.70741653442383,-0.469549179077148,0.0008273193379864097,-0.014383954927325249,0.010347224771976471
2150813817,-0.330076217651367,-9.71989059448242,-0.473427414894104,0.0006443020538426936,-0.015466626733541489,0.010127995163202286
2159126758,-0.3204026222229,-9.70201015472412,-0.468436807394028,0.0007719786372035742,-0.016064174473285675,0.009849092923104763
2169092178,-0.331413000822067,-9.72868633270264,-0.460235506296158,0.001221165177412331,-0.01587565429508686,0.009458833374083042
2179930925,-0.326202750205994,-9.70941734313965,-0.477215558290482,0.0017250215169042349,-0.015140995383262634,0.009096703492105007
2203015804,-0.328839093446732,-9.71112728118897,-0.467879563570023,0.0019306328613311052,-0.01438749860972166,0.00892097782343626
2211112022,-0.32913002371788,-9.70100498199463,-0.464957594871521,0.0007948327111080289,-0.013593357987701893,0.00888168066740036
2219971656,-0.326524943113327,-9.70774555206299,-0.465625375509262,-0.00037700074608437717,-0.013094629161059856,0.009096568450331688
2239639997,-0.336831986904144,-9.72092342376709,-0.467415511608124,-0.002388798398897052,-0.010552770458161831,0.010206240229308605
2249782085,-0.334226399660111,-9.71382713317871,-0.469169020652771,-0.0028745089657604694,-0.00905319582670927,0.010552947409451008
2265420436,-0.329506725072861,-9.71517276763916,-0.470971375703812,-0.003306813770905137,-0.008384846150875092,0.010452432557940483
2279277801,-0.325774937868118,-9.71584320068359,-0.469686269760132,-0.004298590123653412,-0.01060522347688675,0.009139040485024452
2389861345,-0.33558663725853,-9.70741653442383,-0.468854784965515,-0.0005590648506768048,-0.011882946826517582,0.007807811722159386
2399621009,-0.334481209516525,-9.707763671875,-0.461105644702911,-0.0029237831477075815,-0.010883979499340057,0.006691012065857649
2409444093,-0.337384283542633,-9.73205184936523,-0.467236161231995,-0.005766031797975302,-0.009601546451449394,0.006375166587531567
2418950080,-0.338170528411865,-9.71247100830078,-0.46951425075531,-0.008351348340511322,-0.00888108555227518,0.00708784069865942
2449872970,-0.323057681322098,-9.7067403793335,-0.466600298881531,-0.010923020541667938,-0.01382727362215519,0.01100884098559618
2489362955,-0.329020261764526,-9.70842933654785,-0.466117739677429,-0.0019479901529848576,-0.014174376614391804,0.009388248436152935
2499080419,-0.321403980255127,-9.71822547912598,-0.45929366350174,0.00025549036217853427,-0.01261050347238779,0.008528931997716427
2530060291,-0.328466027975082,-9.71045780181885,-0.46387991309166,0.0032532340846955776,-0.01198007445782423,0.010311498306691647
2559693813,-0.332492113113403,-9.71820831298828,-0.467726528644562,0.003809490008279681,-0.01593388430774212,0.011255532503128052
2569460391,-0.337683498859406,-9.71315288543701,-0.464204043149948,0.0036354903131723404,-0.01594475470483303,0.010470924898982048
2590075731,-0.331052482128143,-9.71450996398926,-0.458981335163116,0.0012174549046903849,-0.01475619338452816,0.009100389666855335
2620195150,-0.323800474405289,-9.70267200469971,-0.47542741894722,-0.0047887396067380905,-0.01238628663122654,0.009801316075026989
2629380226,-0.333261728286743,-9.71685981750488,-0.467691749334335,-0.005820109974592924,-0.011140712536871433,0.010431788861751556
2649283409,-0.334306955337524,-9.71719264984131,-0.475270956754685,-0.00517995236441493,-0.00916116964071989,0.009905495680868626
2699446201,-0.324630916118622,-9.71684646606445,-0.476815164089203,-0.004670055117458105,-0.011998201720416546,0.007701769005507231
2719907999,-0.326894581317902,-9.70672225952148,-0.473827958106995,-0.004806491546332836,-0.011391878128051758,0.009861514903604984
2729817390,-0.331271350383759,-9.70808124542237,-0.474231690168381,-0.003960780333727598,-0.011237903498113155,0.010047628544270992
2739686965,-0.328423887491226,-9.72259616851807,-0.470959454774857,-0.0028178109787404537,-0.010886949487030506,0.009334844537079334
2940263032,-0.331305205821991,-9.71078491210938,-0.463606983423233,0.0023265336640179157,-0.011868156492710114,0.012039023451507092
2950207948,-0.334347903728485,-9.71214199066162,-0.465833902359009,0.0009041170706041157,-0.01169873122125864,0.012059764005243778
2959940195,-0.332118421792984,-9.71246719360352,-0.476938217878342,-0.0008849886362440884,-0.011248564347624779,0.011948551051318645
2969699621,-0.327486872673035,-9.71582984924316,-0.4725421667099,-0.002758347662165761,-0.010820227675139904,0.011631266213953495
2980298995,-0.329878598451614,-9.72123813629151,-0.46977972984314,-0.004320257809013128,-0.010781247168779373,0.010834055952727795
2989935636,-0.325904697179794,-9.7161922454834,-0.465848207473755,-0.005171242635697126,-0.011427199468016624,0.009532567113637924
3009799003,-0.326298117637634,-9.70550441741944,-0.459405273199081,-0.003997785039246082,-0.014811613596975803,0.007174340076744556
3080303668,-0.328827321529388,-9.71090602874756,-0.465417414903641,0.0005149613134562969,-0.011923075653612614,0.007874272763729095
3100100278,-0.318761676549912,-9.71224117279053,-0.473803222179413,-0.003972264472395182,-0.011677511967718601,0.008230642415583134
3110455989,-0.339531540870667,-9.71561527252197,-0.471571087837219,-0.004943629261106253,-0.011805546469986439,0.008854917250573635
3120009422,-0.332382261753082,-9.71865940093994,-0.473188132047653,-0.004915501456707716,-0.01207080390304327,0.009086835198104382
3132459402,-0.330055356025696,-9.71189880371094,-0.471923768520355,-0.004394714254885912,-0.012584162876009941,0.008669974282383919
3139673709,-0.32978618144989,-9.70888328552246,-0.464476585388184,-0.003954512532800436,-0.013324466533958912,0.007758949883282185
3149638175,-0.340020805597305,-9.70921611785889,-0.464641779661179,-0.003843930084258318,-0.013969226740300655,0.006851574871689081
3159852504,-0.323858857154846,-9.71259498596191,-0.464989334344864,-0.004088883753865957,-0.014095320366322994,0.006553830578923225
3340002059,-0.328881829977036,-9.71527290344238,-0.471221059560776,-0.002267936011776328,-0.01473842654377222,0.008464266546070576
3349889516,-0.330563485622406,-9.72440433502197,-0.46650367975235,-0.002251945436000824,-0.01587347872555256,0.008477561175823212
3362142086,-0.326434671878815,-9.7156286239624,-0.459713399410248,-0.0025340497959405184,-0.01675896905362606,0.009007963351905346
3369309425,-0.335297733545303,-9.70382404327393,-0.463021874427795,-0.0029505500569939613,-0.017360098659992218,0.00990262534469366
3399275541,-0.33388164639473,-9.71663761138916,-0.469974100589752,-0.0031341081485152245,-0.01517687737941742,0.013349554501473904
3410171270,-0.329262763261795,-9.71765327453613,-0.464420914649963,-0.002566169947385788,-0.013326577842235565,0.013897860422730446
3449721574,-0.322675108909607,-9.71191215515137,-0.466284215450287,-0.0006818185793235898,-0.013543165288865566,0.01044661458581686
3499423265,-0.325571745634079,-9.72472953796387,-0.470713585615158,0.0004878381732851267,-0.011464130133390427,0.006853021681308746
3515445232,-0.328604817390442,-9.70988750457764,-0.470204830169678,0.00013683419092558324,-0.011286941356956959,0.006351673509925604
3519634962,-0.331838577985764,-9.71462059020996,-0.46645113825798,0.0002143960155081004,-0.011817928403615952,0.006165012251585722
3529400587,-0.32292115688324,-9.71359920501709,-0.465753197669983,0.0004461086937226355,-0.012826835736632347,0.006448991596698761
3542233228,-0.33740645647049,-9.70989418029785,-0.467358022928238,0.0004624635330401361,-0.01384816225618124,0.007216875907033682
3680496692,-0.330795526504517,-9.70583534240723,-0.468474209308624,-0.0009351781918667257,-0.01084186602383852,0.010037727653980255
3849714756,-0.336946606636047,-9.71260261535645,-0.462621212005615,-0.0019198959926143289,-0.011743045412003994,0.010214629583060741
3890218734,-0.321099787950516,-9.71696853637695,-0.467718809843063,-0.0019182461546733975,-0.008713549003005028,0.009226882830262184
3920231342,-0.324106872081757,-9.7024564743042,-0.469607442617416,0.0008128861081786454,-0.012671025469899178,0.008931026794016361
3951447963,-0.322412401437759,-9.70920181274414,-0.474377036094666,0.005515905562788248,-0.008357116021215916,0.008968285284936428
3960136413,-0.326773256063461,-9.71393871307373,-0.471245765686035,0.00505319656804204,-0.007298254873603582,0.00898737646639347
3980399608,-0.32930988073349,-9.70481300354004,-0.470448434352875,0.0019051549024879932,-0.008391017094254494,0.008452977985143661
3990044832,-0.326448678970337,-9.71089553833008,-0.46328130364418,0.0002641559694893658,-0.009833494201302528,0.007875461131334305
3999786138,-0.327122718095779,-9.70750904083252,-0.47063347697258,-0.0009722759714350104,-0.010997844859957695,0.007435437757521868
4010942459,-0.329184681177139,-9.70716190338135,-0.480779498815537,-0.0016565484693273902,-0.011430610902607441,0.007362703327089548
4100141525,-0.3275525867939,-9.70718193054199,-0.472632050514221,-0.0020650378428399563,-0.016318893060088158,0.01221771351993084
4119524955,-0.323888063430786,-9.71628093719483,-0.4728162586689,0.002505392301827669,-0.01226215623319149,0.010981764644384384
4130228996,-0.316024154424667,-9.71087646484375,-0.474637180566788,0.0036560518201440573,-0.010292925871908665,0.00943092443048954
4169860601,-0.33410057425499,-9.71866130828858,-0.469514727592468,0.002861622255295515,-0.013787349686026573,0.006463791709393263
4200315713,-0.329186618328094,-9.7132568359375,-0.471219688653946,0.001896647154353559,-0.017689628526568413,0.00791834481060505
4220068931,-0.328127771615982,-9.71530342102051,-0.458014190196991,0.00034436394344083965,-0.01537694875150919,0.007793552242219448
4250128507,-0.32688045501709,-9.70987987518311,-0.471303343772888,0.0001982636604225263,-0.013492463156580925,0.009583237580955029
4260319709,-0.33014839887619,-9.71934700012207,-0.465810716152191,-0.00028165557887405157,-0.013203933835029602,0.010240687057375908
4269909143,-0.33465501666069,-9.71056175231934,-0.462839424610138,-0.0012280800146982074,-0.012915164232254028,0.010506385937333107
4279731273,-0.326602667570114,-9.71157550811768,-0.467785358428955,-0.0023814442101866007,-0.012776502408087254,0.010537411086261272
4469556570,-0.329029858112335,-9.7159538269043,-0.473613053560257,-0.0005728139076381922,-0.014643440954387188,0.008743750862777233
4479596614,-0.327969402074814,-9.7068510055542,-0.469451069831848,-0.0016167936846613884,-0.013918410986661911,0.007838468998670578
4520388841,-0.328965902328491,-9.71360015869141,-0.466517269611359,-0.003540955251082778,-0.009282953105866909,0.007291867863386869
4569796085,-0.319942384958267,-9.71800327301026,-0.456144422292709,-0.0034444299526512623,-0.010234917514026165,0.010139552876353264
4589771032,-0.329229027032852,-9.71428012847901,-0.466115832328796,0.00023470030282624066,-0.013000627048313618,0.0097877262160182
4600783348,-0.329192131757736,-9.72068119049072,-0.473052114248276,0.0021616898011416197,-0.014281969517469406,0.010401632636785507
4610473394,-0.336470931768417,-9.71393013000488,-0.472294807434082,0.003064590971916914,-0.015300685539841652,0.011262812651693821
4660124540,-0.324467837810516,-9.72033596038819,-0.47153913974762,-0.006493808701634407,-0.017442449927330017,0.009034925140440464
4690036773,-0.333375543355942,-9.71564960479737,-0.455286264419556,-0.0043635587207973,-0.01884409599006176,0.009118197485804558
4730193138,-0.326955616474152,-9.70752716064453,-0.47109666466713,0.0009088122751563787,-0.013723833486437798,0.010236426256597042
4940253019,-0.343535989522934,-9.71562671661377,-0.468159198760986,-0.0019134311005473137,-0.01668252795934677,0.01038187462836504
4950250625,-0.317365080118179,-9.71393394470215,-0.465624451637268,-0.0018655654275789857,-0.01720026321709156,0.00928047951310873
4960204601,-0.325304210186005,-9.71664047241211,-0.467132955789566,-0.002467784332111478,-0.01747884228825569,0.007974622771143913
4969865083,-0.329224735498428,-9.71054744720459,-0.473398983478546,-0.0031094078440219164,-0.01735294796526432,0.007136237341910601
4980270624,-0.332751631736755,-9.71258163452148,-0.473114997148514,-0.003197568003088236,-0.016779020428657532,0.006991231348365545
4989886999,-0.331364631652832,-9.71360683441162,-0.460793554782867,-0.0027676629833877087,-0.01581910066306591,0.007283452898263931
4999596357,-0.321861624717712,-9.70550060272217,-0.463495254516602,-0.002252285834401846,-0.014622677117586136,0.0077766552567481995
5009838104,-0.320345640182495,-9.70753765106201,-0.461997598409653,-0.0018547694198787212,-0.013320202939212322,0.008560268208384514
5230237245,-0.328765749931335,-9.70920658111572,-0.464625835418701,-0.007135290186852217,-0.011695338413119316,0.010929035022854805
5270058393,-0.322422474622726,-9.70515632629395,-0.472260266542435,-0.0005562250735238194,-0.011478200554847717,0.009527202695608139
5279936075,-0.32470977306366,-9.71730327606201,-0.474661827087402,-0.0010067864786833525,-0.01254296861588955,0.010029379278421402
5330323219,-0.325864613056183,-9.71764755249023,-0.469450712203979,-0.002030556323006749,-0.01396158616989851,0.0058301035314798355
5340750217,-0.313941240310669,-9.69435501098633,-0.470676600933075,-0.0006011067307554185,-0.013792448677122593,0.004868147429078817
5390033245,-0.324451923370361,-9.71190357208252,-0.476447224617004,0.004541689530014992,-0.011253982782363892,0.0065615540370345116
5399842500,-0.331712365150452,-9.7108964920044,-0.466160386800766,0.0031144102104008198,-0.011302475817501545,0.005958803463727236
5410101652,-0.329020708799362,-9.71359348297119,-0.471789121627808,0.0011202461319044232,-0.011473195627331734,0.0050473930314183235
5420195102,-0.325971007347107,-9.71460914611816,-0.468227863311768,-0.0008675934514030814,-0.01169694121927023,0.004433538299053907
5450304508,-0.319039911031723,-9.71934509277344,-0.463179022073746,-0.002665359526872635,-0.012786980718374252,0.005327258724719286
5490157842,-0.32808592915535,-9.71527576446533,-0.472985476255417,0.0019740709103643894,-0.015996305271983147,0.0070151290856301785
5560450077,-0.32259938120842,-9.71494483947754,-0.474122911691666,-0.0035248168278485537,-0.013310271315276623,0.008938681334257126
5610235691,-0.326206535100937,-9.72068405151367,-0.474153965711594,-0.0006731650209985673,-0.014917196705937386,0.003882757155224681
5620591402,-0.329603940248489,-9.71089935302734,-0.473152279853821,0.00036324479151517153,-0.013033603318035603,0.0035042772069573402
5630092620,-0.325700998306274,-9.70413684844971,-0.474240064620972,0.0008869359153322875,-0.011353968642652035,0.0036399299278855324
5640017747,-0.327403008937836,-9.71360397338867,-0.46545621752739,0.0008656581048853695,-0.01032075472176075,0.004034321755170822
5659628391,-0.32496777176857,-9.71492290496826,-0.482136279344559,-0.00016370878438465297,-0.0097989272326231,0.005165980663150549
5839814901,-0.331625759601593,-9.71629619598389,-0.463961541652679,-0.0034034098498523235,-0.010635766200721264,0.009097033180296421
5890451431,-0.317623466253281,-9.72035503387451,-0.464805364608765,-0.001717884442768991,-0.013376190327107906,0.011252712458372116
5920531749,-0.325569868087769,-9.71596240997315,-0.470522314310074,-0.00027365481946617365,-0.01453274767845869,0.011454748921096325
5930368185,-0.328363537788391,-9.71595764160156,-0.46914404630661,0.00015146873192861676,-0.013663452118635178,0.010474532842636108
5940358161,-0.326420277357101,-9.71360206604004,-0.470936119556427,0.0004728285130113363,-0.012569890357553959,0.008909936062991619
5950067996,-0.326521515846252,-9.71764945983887,-0.470221608877182,0.0006236008484847844,-0.011882874183356762,0.00729368394240737
5960145950,-0.326180696487427,-9.70820045471191,-0.474393725395203,0.0005893294000998139,-0.011918177828192711,0.006124031729996204
5969783067,-0.333729863166809,-9.71259880065918,-0.46005117893219,0.00040975393494591117,-0.012511677108705044,0.00560749089345336
5989792585,-0.321088403463364,-9.70650291442871,-0.472719222307205,-0.0006637853803113103,-0.013800302520394325,0.0068304892629384995
6199737071,-0.329211503267288,-9.70434856414795,-0.478643506765366,-0.006678000092506409,-0.014244286343455315,0.005318705923855305
6239870071,-0.332249134778976,-9.70841789245605,-0.471375793218613,-0.0017875016201287508,-0.010182088240981102,0.007317025680094957
6250064611,-0.331972122192383,-9.70977592468262,-0.464212745428085,-0.0008843974210321903,-0.010638059116899967,0.009015820920467377
6259559392,-0.331277817487717,-9.71652412414551,-0.468295454978943,-0.0005945588345639408,-0.011263052932918072,0.01052107848227024
6270610809,-0.339506208896637,-9.7219295501709,-0.467572540044785,-0.0010816288413479924,-0.0117794219404459,0.011454140767455101
6300182104,-0.329680502414703,-9.71754741668701,-0.461505085229874,-0.005513864103704691,-0.013876194134354591,0.010659527033567429
6310790061,-0.326481103897095,-9.71112251281738,-0.471583932638168,-0.006223997101187706,-0.014294436201453209,0.00977473147213459
6320634603,-0.324196606874466,-9.71954727172852,-0.472817718982697,-0.0058138263411819935,-0.014315477572381496,0.009092490188777447
6503130197,-0.330191910266876,-9.71921443939209,-0.478321045637131,-0.0028972586151212454,-0.010664536617696285,0.006608735769987106
6550328016,-0.337281584739685,-9.71414852142334,-0.475433379411697,-0.003868867177516222,-0.016513662412762642,0.00584141630679369
6560384511,-0.327824294567108,-9.7155179977417,-0.466583341360092,-0.0036003391724079847,-0.0161220021545887,0.0062624202109873295
6570430040,-0.336365133523941,-9.71685314178467,-0.470288157463074,-0.003956539090722799,-0.015316322445869446,0.00712632155045867
6580628633,-0.330645740032196,-9.71043586730957,-0.475394725799561,-0.004757116548717022,-0.014577748253941536,0.008039118722081184
6590816020,-0.335144728422165,-9.71650886535645,-0.472837865352631,-0.005650870036333799,-0.014148016460239887,0.008579223416745663
6600842952,-0.322381019592285,-9.71516036987305,-0.477409452199936,-0.006320970598608255,-0.014019787311553955,0.008429715409874916
6610009670,-0.326004445552826,-9.71011257171631,-0.467205882072449,-0.006450481712818146,-0.014090379700064659,0.007545080967247486
6619865417,-0.326449990272522,-9.71516799926758,-0.475703448057175,-0.005761193111538887,-0.014213718473911285,0.006241757422685623
6680400609,-0.333878874778748,-9.70977306365967,-0.471243113279343,0.0022634626366198063,-0.01134510152041912,0.0048004393465816975
6689728021,-0.323737263679504,-9.71853256225586,-0.474185764789581,0.0005834922776557505,-0.009760658256709576,0.005524513777345419
6700270175,-0.327078878879547,-9.70537853240967,-0.477993667125702,-0.0015236608451232314,-0.008786207064986229,0.006141178775578737
6780937194,-0.328168630599976,-9.71685981750488,-0.468666613101959,0.000748556456528604,-0.01231677457690239,0.0060980902053415775
6790839195,-0.3191779255867,-9.71181011199951,-0.464829653501511,0.001523691462352872,-0.012990142218768597,0.007363154552876949
6800257205,-0.337032973766327,-9.71247291564941,-0.466983437538147,0.001954519422724843,-0.01398527529090643,0.00836266204714775
6830143451,-0.315898507833481,-9.71549415588379,-0.475545227527618,-0.00015821987472008914,-0.0155797703191638,0.00896319281309843
6970008850,-0.333588004112244,-9.70941734313965,-0.477829307317734,-0.005013005807995796,-0.014516081660985947,0.005704259965568781
7089833259,-0.323184192180634,-9.72371292114258,-0.469719111919403,-0.00360295083373785,-0.014929086901247501,0.0078049832955002785
7100850105,-0.333693951368332,-9.72135257720947,-0.47329381108284,-0.001960883615538478,-0.016633789986371994,0.007064646575599909
7119939804,-0.325141757726669,-9.72810649871826,-0.475223034620285,0.0005840622470714152,-0.020744066685438156,0.006709145847707987
7181046962,-0.320346593856812,-9.7102165222168,-0.478592336177826,-0.001811870839446783,-0.016840387135744095,0.00546289561316371
7190846204,-0.336202800273895,-9.71024227142334,-0.466279119253159,-0.0016570803709328175,-0.014827324077486992,0.0061864424496889114
7200356960,-0.329021096229553,-9.72608470916748,-0.47219517827034,-0.0012454468524083495,-0.01346238236874342,0.006560631562024355
7210098981,-0.329449087381363,-9.71631813049316,-0.457022160291672,-0.0009378636023029685,-0.012845967896282673,0.0066257622092962265
7220192432,-0.33628523349762,-9.71326637268066,-0.464825809001923,-0.001060299575328827,-0.013152173720300198,0.006858676206320524
7460549354,-0.332641422748566,-9.70583248138428,-0.470226436853409,-0.0024090788792818785,-0.013427351601421833,0.008317183703184128
7470434427,-0.33593675494194,-9.71665382385254,-0.46224907040596,-0.0019509508274495602,-0.012462115846574306,0.008066571317613125
7480795383,-0.319762200117111,-9.71326065063477,-0.474118590354919,-0.0017318984027951956,-0.011398842558264732,0.007969037629663944
7730346202,-0.32760426402092,-9.70279884338379,-0.466865807771683,-0.0015355348587036133,-0.008886365219950676,0.005345115903764963
7740510225,-0.327676802873612,-9.70954132080078,-0.469283759593964,-0.0009794762590900064,-0.009012528695166111,0.005683679133653641
7800285339,-0.318471819162369,-9.71494197845459,-0.469576001167297,0.0012759624514728785,-0.008620199747383595,0.007401730865240097
7842869758,-0.326427847146988,-9.71360492706299,-0.465166002511978,0.00021651852875947952,-0.01763349398970604,0.0068129366263747215
7850424528,-0.326257884502411,-9.70212268829346,-0.468787223100662,-0.0009840758284553885,-0.01800108328461647,0.006964137777686119
7860001802,-0.336418062448502,-9.71258163452148,-0.474149733781815,-0.002180777257308364,-0.01712968945503235,0.0073791383765637875
7870959758,-0.327510863542557,-9.7149486541748,-0.475484818220139,-0.0030442187562584877,-0.015236204490065575,0.007890786044299603
7880732297,-0.330155819654465,-9.71831512451172,-0.471228212118149,-0.00354184303432703,-0.01299513690173626,0.00810201931744814
8140667200,-0.32976359128952,-9.71427631378174,-0.466597497463226,-0.0037435004487633705,-0.010817071422934532,0.0045236581936478615
8150563716,-0.326903492212296,-9.72203826904297,-0.466179013252258,-0.003987605683505535,-0.01023040059953928,0.005039750132709742
8160457134,-0.327886044979095,-9.71729946136475,-0.473686903715134,-0.003484197659417987,-0.009925003163516521,0.006211651023477316
8180976152,-0.332996517419815,-9.71191501617432,-0.463576018810272,-0.0016453226562589407,-0.011897662654519081,0.008720791898667812
8280351638,-0.331839323043823,-9.72575664520264,-0.470433235168457,0.00019452552078291774,-0.016670458018779755,0.007461494766175747
8469373941,-0.333745986223221,-9.71021175384522,-0.470671713352203,-0.0025715907104313374,-0.014183636754751205,0.009614149108529091
8479296445,-0.31878250837326,-9.70514392852783,-0.482362985610962,-0.0035379889886826277,-0.012953132390975952,0.009335261769592762
8539162874,-0.323989480733872,-9.70547389984131,-0.475486189126968,0.00033828848972916603,-0.010339322499930859,0.001911122351884842
8549064159,-0.318249464035034,-9.71257114410401,-0.470721632242203,-0.00023189444618765265,-0.01188085600733757,0.00275857700034976
8559792041,-0.329234689474106,-9.70885276794434,-0.478489428758621,-0.0005523511790670455,-0.012886892072856426,0.004182336386293173
8610231637,-0.332742720842362,-9.70987510681152,-0.474398016929626,0.00014313653809949756,-0.010477499105036259,0.005302744451910257
8799623727,-0.331941395998001,-9.69976234436035,-0.469146907329559,-0.001492297276854515,-0.012433349154889584,0.0052923220209777355
8809331417,-0.33295863866806,-9.71394062042237,-0.467716634273529,-0.0010958710918202996,-0.013215169310569763,0.005636038724333048
8851400613,-0.338517189025879,-9.70786190032959,-0.471780031919479,-0.0015928152715787292,-0.010542485862970352,0.008970792405307293
9029050350,-0.326015383005142,-9.70583152770996,-0.472160249948502,-0.0030778434593230486,-0.014500756748020649,0.008423447608947754
9058869361,-0.328928977251053,-9.71461296081543,-0.470810979604721,0.003386765019968152,-0.009715599939227104,0.0068818447180092335
9068797588,-0.334229528903961,-9.70888137817383,-0.468375682830811,0.00318371644243598,-0.00836573913693428,0.006420568097382784
9149790287,-0.330425798892975,-9.70683288574219,-0.47794446349144,-0.0001246571191586554,-0.01851547136902809,0.007636452093720436
9329717636,-0.331465482711792,-9.71088600158691,-0.477637082338333,-0.002998779993504286,-0.014553246088325977,0.00724982051178813
9339783191,-0.321418136358261,-9.70616340637207,-0.470095783472061,-0.002900731051340699,-0.013664385303854942,0.00671897828578949
9369562387,-0.323605060577393,-9.71662425994873,-0.467379122972488,-0.00195724586956203,-0.009390360675752163,0.005206798668950796
9399215459,-0.328001022338867,-9.71965789794922,-0.474037975072861,-0.0007451859419234097,-0.010712921619415283,0.007463089190423489
9408849954,-0.323008090257645,-9.70852565765381,-0.474846541881561,-0.0010920669883489609,-0.012153021059930325,0.0077494229190051556
9439863681,-0.322698026895523,-9.71426963806152,-0.465432733297348,-0.0025162226520478725,-0.014897512272000313,0.006045201327651739
9569069862,-0.321835041046143,-9.71798706054688,-0.467106699943542,0.0005694205174222589,-0.014245555736124516,0.008297774940729141
9749864816,-0.336987257003784,-9.71932983398438,-0.475929319858551,0.003192021045833826,-0.011401726864278316,0.008327698335051537
9788600444,-0.32119020819664,-9.71427249908447,-0.466619610786438,-0.0029874600004404783,-0.00875243078917265,0.005498481914401054
9819427013,-0.334405839443207,-9.69840621948242,-0.468885540962219,-0.0010859547182917595,-0.011454273015260696,0.007424958981573582
9828876972,-0.327348798513413,-9.70717620849609,-0.473332643508911,-4.188766251900233e-05,-0.010011584497988224,0.008835555985569954
9849565505,-0.325161635875702,-9.71392631530762,-0.473373770713806,-0.0008975319215096533,-0.005466647446155548,0.00991359818726778
9880065679,-0.337380260229111,-9.70651626586914,-0.461421221494675,-0.003353065112605691,-0.006264490075409412,0.006380825769156218
9891890048,-0.338424980640411,-9.70853710174561,-0.468510150909424,-0.0036356551572680473,-0.008927860297262669,0.005607591476291418
9899776458,-0.328250467777252,-9.70954990386963,-0.46781799197197,-0.0042149899527430534,-0.011300628073513508,0.005871128756552935
9909485816,-0.335530996322632,-9.70785140991211,-0.470901668071747,-0.005202912725508213,-0.012564648874104023,0.007047249935567379
10079640388,-0.328533411026001,-9.71293354034424,-0.465687215328217,-0.0033439479302614927,-0.013390637002885342,0.0023539080284535885
10089371204,-0.329568803310394,-9.70617485046387,-0.471133261919022,-0.004928129725158215,-0.014649923890829086,0.0022658780217170715
10099387645,-0.333048433065414,-9.71124076843262,-0.469681680202484,-0.005840939469635487,-0.015474286861717701,0.0031769610941410065
10188851118,-0.341880559921265,-9.71159744262695,-0.4617840051651,-0.001841776305809617,-0.013620972633361816,0.009164338931441307
10369361400,-0.334127128124237,-9.70650863647461,-0.472134202718735,-0.0009548532543703914,-0.01167563907802105,0.005538598634302616
10420019865,-0.323485195636749,-9.72102928161621,-0.463893443346024,0.0008190089138224721,-0.008437184616923332,0.007775657344609499
10429737806,-0.32947251200676,-9.71122550964355,-0.467925697565079,0.0011227881768718362,-0.009186995215713978,0.008017422631382942
10450233221,-0.325650662183762,-9.71595478057862,-0.473251193761826,0.0007279777200892568,-0.013299048878252506,0.008937360718846321
10489363670,-0.338011145591736,-9.7149543762207,-0.463177412748337,0.0007704458548687398,-0.021124687045812607,0.00841520819813013
10499453783,-0.326887041330338,-9.7149600982666,-0.466063112020493,0.0008385899127461016,-0.021956482902169228,0.008556613698601723
10529565811,-0.325551271438599,-9.71934032440186,-0.465504467487335,-0.002011156640946865,-0.018395189195871353,0.010899405926465988
10549397230,-0.332935392856598,-9.70246505737305,-0.470495641231537,-0.003862675977870822,-0.015042141079902649,0.012066636234521866
10589263677,-0.325779467821121,-9.70380592346191,-0.474914968013763,-0.0030337695498019457,-0.010319610126316547,0.007758542895317078
10752951383,-0.334740161895752,-9.70650959014893,-0.471223741769791,-0.005538142751902342,-0.013091002590954304,0.0058845048770308495
10759624004,-0.328738868236542,-9.72337245941162,-0.470726549625397,-0.004721490200608969,-0.013037285767495632,0.004935204051434994
10818998098,-0.326283037662506,-9.71528816223145,-0.469741970300674,-0.003362573916092515,-0.016512369737029076,0.0059953914023935795
10879560470,-0.331910818815231,-9.72811985015869,-0.464761167764664,0.00041687474003992975,-0.01808859035372734,0.01052230503410101
11059178590,-0.337801724672318,-9.70450973510742,-0.462486684322357,-0.01174035482108593,-0.014367452822625637,0.0054427096620202065
11069973707,-0.337317109107971,-9.70686054229737,-0.467040985822678,-0.011069103144109249,-0.012844571843743324,0.005388903897255659
11089729785,-0.341288268566132,-9.7092113494873,-0.473855495452881,-0.009626711718738079,-0.00950828567147255,0.005914409179240465
11179743766,-0.348135143518448,-9.71158313751221,-0.470073610544205,-0.019859597086906433,-0.007643118500709534,0.008416509255766869
11190051317,-0.342958301305771,-9.71766090393066,-0.468057453632355,-0.01965591311454773,-0.007606856524944305,0.008335874415934086
11199318408,-0.348011165857315,-9.71125030517578,-0.469699263572693,-0.018900230526924133,-0.007816191762685776,0.0077924951910972595
11209410905,-0.337841361761093,-9.72169303894043,-0.473721385002136,-0.018031470477581024,-0.008684498257935047,0.0071280281990766525
11222151041,-0.338464796543121,-9.70820236206055,-0.469197601079941,-0.01729840599000454,-0.01026458665728569,0.00664745457470417
11229358911,-0.348131150007248,-9.71598625183105,-0.460531562566757,-0.016649698838591576,-0.01221205573529005,0.006479047238826752
11239277362,-0.341110318899155,-9.71192169189453,-0.463918745517731,-0.01603306271135807,-0.01395754050463438,0.006789374630898237
11249945402,-0.334020614624023,-9.71326065063477,-0.476275116205216,-0.015535774640738964,-0.015034209005534649,0.007725819479674101
11279127597,-0.343953967094421,-9.72440814971924,-0.470041871070862,-0.014475958421826363,-0.014068828895688057,0.01039885263890028
11450174808,-0.336225360631943,-9.70854473114014,-0.46647247672081,-0.02005106583237648,-0.009556868113577366,0.009990050457417965
11619181394,-0.349856853485107,-9.71900939941406,-0.461797058582306,-0.01871131919324398,-0.012530412524938583,0.011748891323804855
11631573677,-0.341683715581894,-9.71021842956543,-0.469863414764404,-0.018149739131331444,-0.01382508222013712,0.01223528478294611
11639230012,-0.350735157728195,-9.71835422515869,-0.456612884998322,-0.018483562394976616,-0.014943345449864864,0.012506802566349506
11749226808,-0.346214056015015,-9.71901416778565,-0.463282883167267,-0.021216537803411484,-0.009057409130036831,0.013552271761000156
11870031356,-0.339906424283981,-9.71462059020996,-0.463702589273453,-0.01657671481370926,-0.011005816981196404,0.01045764796435833
12041359663,-0.340717971324921,-9.70615863800049,-0.476848274469376,-0.012850292958319187,-0.01029913779348135,0.007746465038508177
12050233602,-0.340036779642105,-9.7105598449707,-0.468104094266892,-0.012986741960048676,-0.009785518050193787,0.008749069646000862
12079694509,-0.340013206005096,-9.71933555603027,-0.464769691228867,-0.012681250460445881,-0.00937016773968935,0.00952987466007471
12159456014,-0.338997483253479,-9.71730613708496,-0.472429662942886,-0.012988314963877201,-0.011943034827709198,0.005829482804983854
12169568061,-0.343116521835327,-9.70145416259766,-0.464335888624191,-0.013382760807871819,-0.011348280124366283,0.0059918905608356
12179416179,-0.342487156391144,-9.71359443664551,-0.477618873119354,-0.013680600561201572,-0.011193303391337395,0.006521069444715977
12189762592,-0.344300329685211,-9.71832752227783,-0.463427186012268,-0.01396751869469881,-0.011218239553272724,0.007182513829320669
12199429988,-0.338917940855026,-9.72001552581787,-0.468783557415009,-0.014344344846904278,-0.011368717066943645,0.007763116620481014
12230336427,-0.324822306632996,-9.7098913192749,-0.466384917497635,-0.01416296698153019,-0.014180652797222137,0.008859211578965187
12409648180,-0.326450973749161,-9.71966648101807,-0.473529696464539,0.0038856894243508577,-0.014578934758901596,0.008139053359627724
12419316530,-0.32156366109848,-9.71225357055664,-0.463181972503662,0.004422979895025492,-0.015306998044252396,0.008967737667262554
12429729223,-0.325386732816696,-9.7189826965332,-0.476371496915817,0.004413902759552002,-0.015951165929436684,0.009491953067481518
12439428567,-0.327742457389832,-9.70954036712647,-0.467274725437164,0.003945404663681984,-0.016357623040676117,0.009595081210136414
12450973510,-0.321093887090683,-9.71662712097168,-0.467843651771545,0.0032242906745523214,-0.016407964751124382,0.009294247254729271
12489706039,-0.330532431602478,-9.72743892669678,-0.460176765918732,0.0028760347049683332,-0.01615486852824688,0.008777406066656113
12499762535,-0.328731447458267,-9.71022129058838,-0.468194484710693,0.004220509435981512,-0.017320191487669945,0.009764761663973331
12539577722,-0.323592394590378,-9.71529293060303,-0.463736712932587,0.0045548854395747185,-0.01963937096297741,0.011809087358415127
12549472332,-0.329661399126053,-9.71292591094971,-0.46579572558403,0.004204892553389072,-0.018518753349781036,0.010331063531339169
12559402942,-0.316943556070328,-9.72035121917725,-0.464885354042053,0.004108213819563389,-0.016948239877820015,0.009028324857354164
12569308042,-0.322514623403549,-9.70750999450684,-0.470707625150681,0.004065681714564562,-0.015428127720952034,0.00851861946284771
12689393997,-0.322393298149109,-9.7206916809082,-0.456829458475113,0.014901380985975266,-0.011115679517388344,0.004227315541356802
12699054956,-0.321134716272354,-9.71832275390625,-0.469256341457367,0.015209612436592579,-0.012648537755012512,0.004731988534331322
12709370613,-0.319535404443741,-9.72270393371582,-0.468776613473892,0.014013639651238918,-0.014420525170862675,0.005642356351017952
12719419717,-0.320256561040878,-9.72269821166992,-0.47308149933815,0.011619525961577892,-0.016354765743017197,0.007027801591902971
12729241371,-0.311105966567993,-9.71460819244385,-0.467878758907318,0.008896584622561932,-0.018262187018990517,0.008455613628029823
12740221977,-0.323665291070938,-9.71528625488281,-0.468875616788864,0.006797435227781534,-0.01980777271091938,0.009418783709406853
13109649658,-0.312132120132446,-9.71222114562988,-0.479506969451904,0.013222284615039825,-0.012718750163912773,0.0036273454315960407
13119943857,-0.313047885894775,-9.71663856506348,-0.468802273273468,0.012442503124475479,-0.011609166860580444,0.003881891956552863
13129794120,-0.307429730892181,-9.70041275024414,-0.479862153530121,0.01192829106003046,-0.01088760606944561,0.0039450000040233135
13229525327,-0.320533275604248,-9.71594715118408,-0.476234674453735,0.012682655826210976,-0.01710399053990841,0.005287816748023033
13409197807,-0.303923398256302,-9.72235870361328,-0.469383507966995,0.016386831179261208,-0.018525298684835434,0.004657282494008541
13419976472,-0.305526107549667,-9.71122646331787,-0.476349800825119,0.016141772270202637,-0.019750328734517097,0.005074591375887394
13432263612,-0.307233899831772,-9.71831130981445,-0.474752753973007,0.015947997570037842,-0.01988821104168892,0.005445933435112238
13440117120,-0.309728920459747,-9.72336673736572,-0.473486483097076,0.016268454492092133,-0.019185805693268776,0.005538163706660271
13450479030,-0.312901973724365,-9.71495056152344,-0.467217713594437,0.0170818530023098,-0.018178323283791542,0.005286120343953371
13599689722,-0.248843967914581,-9.70610809326172,-0.497127383947372,0.045029230415821075,-0.021381305530667305,-0.01142787653952837
13609670400,-0.240578681230545,-9.69767189025879,-0.49910569190979,0.054885100573301315,-0.02039521001279354,-0.016836602240800858
13619290113,-0.208496764302254,-9.69564151763916,-0.498946368694305,0.06530499458312988,-0.01793316751718521,-0.02112451381981373
13629537820,-0.223781198263168,-9.71555423736572,-0.494263887405396,0.07561205327510834,-0.014001375064253807,-0.02368171140551567
13639474153,-0.197528347373009,-9.71555328369141,-0.49308979511261,0.0855722650885582,-0.009418651461601257,-0.02436104230582714
13650059223,-0.196585431694984,-9.7222957611084,-0.492452085018158,0.09519313275814056,-0.005775114521384239,-0.023407429456710815
13659478425,-0.188721597194672,-9.72365283966065,-0.488761126995087,0.10453598201274872,-0.00457178708165884,-0.021314160898327827
13669261693,-0.18646527826786,-9.72768688201904,-0.489111483097076,0.11360757052898407,-0.006391951814293861,-0.01866484060883522
13760127067,-0.110883556306362,-9.74184799194336,-0.510039389133453,0.2043164074420929,-0.02087497152388096,-0.04440012574195862
13769973754,-0.104641236364841,-9.72160339355469,-0.51561838388443,0.21145425736904144,-0.021839143708348274,-0.04655740037560463
13781729698,-0.123813390731812,-9.72464179992676,-0.499379992485046,0.21706745028495789,-0.025401033461093903,-0.045766521245241165
13789564609,-0.132797539234161,-9.71418952941895,-0.506745576858521,0.22040113806724548,-0.029520919546484947,-0.04262695088982582
13920018196,-0.374498516321182,-9.72371482849121,-0.468978106975555,0.0339224599301815,0.0001599479146534577,-0.025454578921198845
13930064916,-0.395266801118851,-9.72949504852295,-0.458495050668716,0.012344518676400185,0.006269137840718031,-0.011704224161803722
13942180871,-0.417094767093658,-9.7365837097168,-0.454920262098312,-0.009250380098819733,0.00972792785614729,0.0003652823797892779
14229327678,-0.350792557001114,-9.71187782287598,-0.490903049707413,-0.08402220159769058,0.012144154869019985,0.018836911767721176
14240386724,-0.306455194950104,-9.68656063079834,-0.493928521871567,-0.06854885071516037,0.0023949118331074715,0.01386222429573536
14251029014,-0.304253131151199,-9.66763687133789,-0.495284557342529,-0.052020393311977386,-0.007425445131957531,0.0060285101644694805
14259851694,-0.29872065782547,-9.67604064941406,-0.50796103477478,-0.0347600057721138,-0.013033772818744183,-0.0029209402855485678
14269777774,-0.323557645082474,-9.69020938873291,-0.515008866786957,-0.0170550886541605,-0.011804698035120964,-0.01142805628478527
14279214620,-0.328638583421707,-9.71012592315674,-0.518377721309662,-0.0005980560090392828,-0.004570609889924526,-0.018766602501273155
14289379596,-0.346799939870834,-9.71251201629639,-0.505504667758942,0.011747750453650951,0.004774963483214378,-0.024898888543248177
14300384521,-0.340276509523392,-9.71521091461182,-0.508838653564453,0.017439771443605423,0.011577439494431019,-0.029805675148963928
14310079574,-0.356163144111633,-9.72504425048828,-0.484942078590393,0.015703832730650902,0.012848404236137867,-0.03306341543793678
14320472717,-0.3813316822052,-9.71863460540772,-0.490527600049973,0.0077420747838914394,0.008240967988967896,-0.03395099565386772
14330134153,-0.392279207706451,-9.70041656494141,-0.49025285243988,-0.004376736003905535,-0.00033089282806031406,-0.0319586880505085
14340158462,-0.397761017084122,-9.70785140991211,-0.474894553422928,-0.018807733431458473,-0.009616228751838207,-0.027337662875652313
14350060224,-0.423771739006042,-9.71190452575684,-0.480998545885086,-0.03414158150553703,-0.016439657658338547,-0.021041540428996086
14360854864,-0.415976196527481,-9.69707870483398,-0.473909139633179,-0.04932728037238121,-0.01913822628557682,-0.014208944514393806
14370870828,-0.438133388757706,-9.69741249084473,-0.480493068695068,-0.06364466995000839,-0.017818327993154526,-0.007861790247261524
14380848169,-0.436640679836273,-9.7044677734375,-0.495389938354492,-0.07662148773670197,-0.013628323562443256,-0.002895667450502515
14391625404,-0.442141652107239,-9.71457386016846,-0.506281077861786,-0.08799669146537781,-0.008249816484749317,-0.0002125100145349279
15240170001,-0.313305139541626,-9.7526912689209,-0.498435705900192,-0.009274208918213844,0.002388262888416648,-0.019151810556650162
15360284805,-0.374988168478012,-9.7415771484375,-0.504222333431244,-0.01689429208636284,0.00659978436306119,-0.03194573149085045
15369907617,-0.358338385820389,-9.71390819549561,-0.505635678768158,-0.025525879114866257,-0.006386090535670519,-0.029067611321806908
15380005598,-0.349147707223892,-9.68758201599121,-0.505730867385864,-0.03393329679965973,-0.02233201265335083,-0.027081714943051338
15390154123,-0.350730061531067,-9.6572093963623,-0.503149509429932,-0.04007946327328682,-0.03433670848608017,-0.026131879538297653
15400060415,-0.336647480726242,-9.65448379516602,-0.510141134262085,-0.04220075532793999,-0.03672337904572487,-0.02604720927774906
15409765243,-0.340276956558228,-9.66932773590088,-0.514885246753693,-0.03978852555155754,-0.02748255990445614,-0.02658107504248619
15420535326,-0.34316623210907,-9.70541572570801,-0.53248792886734,-0.03373338654637337,-0.009405127726495266,-0.02774185873568058
15429900884,-0.340050369501114,-9.73610687255859,-0.54429441690445,-0.025934770703315735,0.01070371549576521,-0.030002105981111526
15439623355,-0.324895799160004,-9.7570161819458,-0.553448379039765,-0.018478289246559143,0.02470305934548378,-0.034157466143369675
15449643373,-0.328442990779877,-9.76615524291992,-0.53919243812561,-0.012629558332264423,0.026573169976472855,-0.04070986807346344
15551713705,-0.347090154886246,-9.76112079620362,-0.52997750043869,-0.0031396367121487856,0.017820820212364197,-0.04360653832554817
15560079813,-0.33209028840065,-9.72130680084229,-0.529177606105805,-0.008545918390154839,0.0021706195548176765,-0.044799450784921646
15880056142,-0.337079405784607,-9.69428443908691,-0.538606882095337,0.017795883119106293,-0.016728810966014862,-0.0819510817527771
15890114545,-0.333102643489838,-9.70744609832764,-0.527323186397553,0.014895065687596798,-0.002423244761303067,-0.08192311972379684
15899528980,-0.338587075471878,-9.71827697753906,-0.521270155906677,0.01067186240106821,0.010967944748699665,-0.07726463675498962
15909553766,-0.33260589838028,-9.73447799682617,-0.509350776672363,0.005322127602994442,0.018333297222852707,-0.06946495920419693
15919722080,-0.344044387340546,-9.73448467254639,-0.505887269973755,-0.00041694872197695076,0.01716127246618271,-0.06011105701327324
15929462194,-0.343269497156143,-9.7122278213501,-0.500075697898865,-0.00567756500095129,0.008149247616529465,-0.05047617107629776
15940164804,-0.343133151531219,-9.70109367370605,-0.494421273469925,-0.009939872659742832,-0.005115932784974575,-0.04143897071480751
15950294017,-0.336521118879318,-9.68387317657471,-0.496993064880371,-0.013051752001047134,-0.017446542158722878,-0.03352721780538559
15960179567,-0.332132190465927,-9.69935607910156,-0.513332843780518,-0.01492278091609478,-0.024244291707873344,-0.027119256556034088
16010123014,-0.312133818864822,-9.73175811767578,-0.540827691555023,-0.004227441269904375,-0.0034284384455531836,-0.035244058817625046
16019716978,-0.323816537857056,-9.71690464019776,-0.539844930171967,-0.00138545548543334,-0.008392642252147198,-0.04355471953749657
16629512071,-0.322337359189987,-9.70854282379151,-0.454438626766205,0.04479297995567322,0.003986923955380917,-0.01101261842995882
16639581203,-0.323365896940231,-9.70890903472901,-0.435051739215851,0.0426970012485981,0.0047098128125071526,-0.0017946315929293633
16649510860,-0.334265559911728,-9.72004699707031,-0.438892930746079,0.03828150033950806,0.004104593303054571,0.00827739480882883
16659950017,-0.337849795818329,-9.72408199310303,-0.44728946685791,0.030841780826449394,0.0014639153378084302,0.018194496631622314
16669520616,-0.345238775014877,-9.70922374725342,-0.454756766557694,0.020704006776213646,-0.0031137163750827312,0.0268876776099205
16680490016,-0.344967097043991,-9.6866044998169,-0.458199262619019,0.009173390455543995,-0.008561383001506329,0.03304922953248024
16690168619,-0.342653840780258,-9.69401168823242,-0.469179183244705,-0.0020281390752643347,-0.012849492952227592,0.035589005798101425
16700244665,-0.337038040161133,-9.69568920135498,-0.470101565122604,-0.011266782879829407,-0.013966483063995838,0.03415882959961891
16710255384,-0.332887232303619,-9.6815242767334,-0.472359359264374,-0.017334042116999626,-0.011248552240431309,0.029313474893569946
16720498561,-0.321916997432709,-9.68724822998047,-0.471528202295303,-0.01964411325752735,-0.00556205864995718,0.022371066734194756
16730319023,-0.303536146879196,-9.68723964691162,-0.477052628993988,-0.01818297803401947,0.0014798501506447792,0.015002042055130005
17360311031,-0.313913285732269,-9.71934223175049,-0.477683305740356,0.014767291955649853,-0.021596485748887062,0.0027080823201686144
17370102643,-0.314117074012756,-9.72202968597412,-0.478740781545639,0.016779400408267975,-0.020341666415333748,0.000954930204898119
17375137329,-0.309460580348969,-9.71123313903809,-0.480115056037903,0.017046138644218445,-0.01951589249074459,-0.0005418902728706598
17394895792,-0.319561243057251,-9.71832942962647,-0.48054438829422,0.01608085073530674,-0.01903044991195202,-0.0016292780637741089
17399305582,-0.325629413127899,-9.72306823730469,-0.46439990401268,0.014542619697749615,-0.018650922924280167,-0.0021850985940545797
17409181594,-0.31690064072609,-9.71530055999756,-0.471903711557388,0.01275723334401846,-0.018303148448467255,-0.0020047633443027735
17418874025,-0.325289189815521,-9.71495819091797,-0.475433886051178,0.010798017494380474,-0.01807054504752159,-0.0008670816896483302
17428602218,-0.331508934497833,-9.71733951568604,-0.463988304138184,0.0087405014783144,-0.017920542508363724,0.0011082891141995788
17438676834,-0.328194737434387,-9.70755004882812,-0.471340209245682,0.006596359424293041,-0.01766945980489254,0.003467016387730837
17458534002,-0.316268771886826,-9.71327686309815,-0.472500264644623,0.001771633978933096,-0.01596071943640709,0.007800383027642965
18208388805,-0.317854851484299,-9.71425437927246,-0.467579632997513,0.004608870018273592,-0.01576007530093193,0.006138077937066555
18219609260,-0.334158062934875,-9.71323776245117,-0.472871065139771,0.004133150912821293,-0.01658828742802143,0.005969027057290077
18349182605,-0.325792133808136,-9.71562957763672,-0.459955632686615,0.0029229784850031137,-0.01649683713912964,0.0067842579446733
18398695945,-0.320539265871048,-9.71765232086182,-0.46429255604744,0.0009928661165758967,-0.015250823460519314,0.011638868600130081
18449925422,-0.332076907157898,-9.71055889129639,-0.474704891443253,0.0038692753296345472,-0.017428377643227577,0.008190837688744068
18508868932,-0.320449322462082,-9.71123027801514,-0.478257298469543,-0.003558074589818716,-0.016320059075951576,0.004106428008526564
18521861314,-0.323652654886246,-9.70923042297363,-0.465601176023483,-0.0034911700058728456,-0.015859240666031837,0.0036943296436220407
18529012680,-0.324555337429047,-9.71865463256836,-0.473486691713333,-0.0022314200177788734,-0.015046377666294575,0.0033535505644977093
18569464206,-0.326253950595856,-9.72405433654785,-0.477894395589829,0.0037376047112047672,-0.012300444766879082,0.0055925785563886166
18689635276,-0.328836888074875,-9.71395111083984,-0.464420288801193,-0.0005527034518308938,-0.00897708348929882,0.005686312913894653
18889248132,-0.323829352855682,-9.70988750457764,-0.465854912996292,-0.003587482962757349,-0.013933803886175156,0.007382357493042946
18903198957,-0.323861002922058,-9.71428489685059,-0.46668928861618,-0.0014503084821626544,-0.012990823946893215,0.007727133575826883
18979600191,-0.329561412334442,-9.7206859588623,-0.467882692813873,-0.0010034632869064808,-0.011095228604972363,0.008176540024578571
19018941402,-0.338485091924667,-9.70449161529541,-0.465039759874344,-0.005350157618522644,-0.01197272539138794,0.009834401309490204
19078713178,-0.333982944488525,-9.72441101074219,-0.462345957756042,-0.006245005875825882,-0.011060302145779133,0.011280978098511696
19119697332,-0.32909283041954,-9.70819187164307,-0.468947350978851,-0.001076282700523734,-0.015883002430200577,0.011688929051160812
19179116964,-0.335136234760284,-9.71798419952393,-0.467160254716873,-0.002278581028804183,-0.0075444974936544895,0.0065185269340872765
19189335823,-0.339820504188538,-9.71562004089355,-0.471923023462296,-0.002274094382300973,-0.006737884134054184,0.006289219483733177
19198998212,-0.324968576431274,-9.71190071105957,-0.468361049890518,-0.002804851159453392,-0.007371013984084129,0.006751497741788626
19209029912,-0.330256193876267,-9.71089935302734,-0.471171885728836,-0.003919157665222883,-0.009181758388876915,0.0075640687718987465
19238973855,-0.339213907718658,-9.70381736755371,-0.4703708589077,-0.005558598320931196,-0.013749053701758385,0.00894269160926342
19469238042,-0.327254325151444,-9.71695613861084,-0.475080043077469,-0.006442617159336805,-0.012799698859453201,0.007420371752232313
19479043006,-0.33855789899826,-9.71359443664551,-0.469859749078751,-0.006408097688108683,-0.011677960865199566,0.005769653245806694
19488810062,-0.332001209259033,-9.71596717834473,-0.465830028057098,-0.005663738120347261,-0.011271735653281212,0.004695334937423468
19509977340,-0.334791630506516,-9.70381450653076,-0.473740965127945,-0.004209731239825487,-0.01237582229077816,0.005038535222411156
19721417427,-0.318694293498993,-9.72000122070312,-0.473088830709457,-0.0055049411021173,-0.01644354872405529,0.008127915672957897
19728922605,-0.327929466962814,-9.71797275543213,-0.472379416227341,-0.004721213132143021,-0.017421463504433632,0.007568748202174902
19819256544,-0.331225335597992,-9.71427154541016,-0.472515910863876,-0.0027682543732225895,-0.009102660231292248,0.008375056087970734
19828963994,-0.33481702208519,-9.71596050262451,-0.465424537658691,-0.003187093185260892,-0.009887323714792728,0.00651277881115675
19838955402,-0.335188359022141,-9.71495819091797,-0.463946342468262,-0.0037750350311398506,-0.011608674190938473,0.00549814710393548
19848960161,-0.328307002782822,-9.72303867340088,-0.472263991832733,-0.004551439080387354,-0.013599169440567493,0.005639899522066116
19859185695,-0.325222790241241,-9.71459865570069,-0.475052893161774,-0.00533257145434618,-0.015410156920552254,0.006720846053212881
20029350757,-0.330986440181732,-9.71663188934326,-0.472507148981094,-0.002127166138961911,-0.009926877915859222,0.009087334387004375
20109532594,-0.334941625595093,-9.71798610687256,-0.470344722270966,-0.0024618247989565134,-0.013454318977892399,0.0059577166102826595
20119536399,-0.330266833305359,-9.71393394470215,-0.462936043739319,-0.0026952996850013733,-0.013207401148974895,0.00601428234949708
20308911800,-0.323644697666168,-9.71560764312744,-0.472153633832932,0.00011332156282151118,-0.010532175190746784,0.0064203473739326
20379536390,-0.317470788955688,-9.71223545074463,-0.475224167108536,-0.0012764346320182085,-0.016139376908540726,0.003401366760954261
20389554023,-0.340327143669128,-9.72338581085205,-0.465704560279846,-0.001249781809747219,-0.01766810193657875,0.004370729438960552
20428756237,-0.329936414957047,-9.72034358978272,-0.46955993771553,-0.0019887308590114117,-0.01883886195719242,0.007909492589533329
20519248485,-0.319797962903976,-9.70987510681152,-0.468386352062225,0.003467037808150053,-0.014776167459785938,0.006889872718602419
20529418945,-0.32452318072319,-9.7149486541748,-0.467256784439087,0.0035256582777947187,-0.015848401933908463,0.0077872248366475105
20540457725,-0.330313235521317,-9.71932601928711,-0.475009948015213,0.0030936957336962223,-0.016617871820926666,0.008576625026762486
20549231767,-0.321686953306198,-9.71427154541016,-0.466032147407532,0.0024842405691742897,-0.016883131116628647,0.009060290642082691
20709800481,-0.316805869340897,-9.69807624816895,-0.466005861759186,-0.003669238882139325,-0.01039316225796938,0.00884633045643568
20719515800,-0.316684097051621,-9.71122360229492,-0.473499447107315,-0.0019172506872564554,-0.010271511971950531,0.007924579083919525
20728746891,-0.328679889440537,-9.70651149749756,-0.466868549585342,-0.000194170352187939,-0.009820666164159775,0.00743087800219655
20739889621,-0.330704569816589,-9.70582962036133,-0.476963073015213,0.00155593641102314,-0.008969149552285671,0.007318028248846531
20749719619,-0.326878905296326,-9.71493721008301,-0.474334090948105,0.0029145602602511644,-0.007995573803782463,0.007329330313950777
20759550094,-0.327218383550644,-9.71597003936768,-0.46083015203476,0.003355778055265546,-0.007339869625866413,0.007184762507677078
20769834041,-0.337026029825211,-9.70887660980225,-0.468904256820679,0.0027402453124523163,-0.0074388752691447735,0.006924474611878395
20989959955,-0.312603145837784,-9.70818138122559,-0.472217321395874,-0.003273752285167575,-0.015222307294607162,0.009582340717315674
20999968051,-0.327629685401917,-9.70852851867676,-0.471883654594421,-0.002899122191593051,-0.01636120118200779,0.009443019516766071
21058870077,-0.32170569896698,-9.70112037658691,-0.461855679750443,0.005030152387917042,-0.014285559765994549,0.007938839495182037
21369251012,-0.327350527048111,-9.72573757171631,-0.471642553806305,0.0012789041502401233,-0.016659926623106003,0.00277283089235425
21379081010,-0.329634487628937,-9.71325302124023,-0.474522173404694,0.0020807127002626657,-0.015895646065473557,0.0033210860565304756
21409205198,-0.320909321308136,-9.71662521362305,-0.475652694702148,0.0028176894411444664,-0.01633402518928051,0.005934612359851599
21529543638,-0.33427482843399,-9.71797561645508,-0.467216372489929,0.004186395555734634,-0.013623570092022419,0.00600642804056406
21539272069,-0.319037109613419,-9.71122932434082,-0.473341763019562,0.00317219621501863,-0.014166328124701977,0.006838832516223192
21549023389,-0.322703033685684,-9.71899127960205,-0.469831883907318,0.00147379154805094,-0.014603568241000175,0.007300082128494978
21564884901,-0.330426871776581,-9.72372150421143,-0.472420454025269,-9.654026507632807e-05,-0.01493054535239935,0.007368744350969791
21572903156,-0.321068495512009,-9.70785903930664,-0.469245940446854,-0.0008882570546120405,-0.015324484556913376,0.007162835914641619
21578998565,-0.334935307502747,-9.72371196746826,-0.470848113298416,-0.0008388307178393006,-0.015885286033153534,0.006863322574645281
21590052604,-0.322288125753403,-9.72472381591797,-0.46769991517067,-0.00033004535362124443,-0.01654583215713501,0.006659216247498989
21629387617,-0.327612280845642,-9.71528148651123,-0.470562607049942,0.0022893392015248537,-0.018735578283667564,0.008606978692114353
22159483194,-0.323928207159042,-9.71256923675537,-0.476419746875763,0.005686120130121708,-0.008847084827721119,0.0088663250207901
22169872999,-0.318652868270874,-9.71527576446533,-0.474399238824844,0.004351834766566753,-0.006574844941496849,0.008248955011367798
22179297924,-0.323118209838867,-9.70785045623779,-0.469788163900375,0.003414888633415103,-0.00538443960249424,0.007197339553385973
22281014204,-0.316385239362717,-9.71730422973633,-0.472793459892273,0.004072326701134443,-0.01380199659615755,0.0036588581278920174
22459941625,-0.331185132265091,-9.70920753479004,-0.467398166656494,0.003874812973663211,-0.013768497854471207,0.006406360771507025
22469784975,-0.320342779159546,-9.7169828414917,-0.46119824051857,0.002941225655376911,-0.0149826779961586,0.0069665261544287205
22479522943,-0.315690517425537,-9.71493911743164,-0.469397991895676,0.0021417189855128527,-0.015684496611356735,0.0079268179833889
22489400386,-0.327179729938507,-9.71732234954834,-0.461081683635712,0.0018013173248618841,-0.015770386904478073,0.009244768880307674
22499215364,-0.323537051677704,-9.71359634399414,-0.471831679344177,0.0021213991567492485,-0.0155026875436306,0.010669931769371033
22513800144,-0.323215633630753,-9.70616149902344,-0.477743327617645,0.0028806068003177643,-0.015141583979129791,0.011781408451497555
22690438747,-0.322538793087006,-9.7173023223877,-0.470690250396729,0.003920018672943115,-0.013550220988690853,0.00465556513518095
22698781251,-0.32103419303894,-9.71899509429932,-0.469211757183075,0.0033459279220551252,-0.014007742516696453,0.004274794831871986
22709913015,-0.330794751644135,-9.70683860778809,-0.478858560323715,0.0032017275225371122,-0.014468791894614697,0.004462902899831533
22719943284,-0.322985917329788,-9.71157073974609,-0.47279080748558,0.0033452457282692194,-0.014816412702202797,0.005058251786977053
22730602264,-0.321831852197647,-9.70582866668701,-0.476254999637604,0.003425583243370056,-0.014762972481548786,0.005562908947467804
22739647388,-0.319057494401932,-9.71595191955566,-0.473667502403259,0.003319929353892803,-0.014081062749028206,0.005593054462224245
22749714136,-0.320530414581299,-9.70785427093506,-0.469916731119156,0.0032455048058182,-0.01289190910756588,0.0051276651211082935
22979283809,-0.337508261203766,-9.70785808563233,-0.47743684053421,-0.0004545025294646621,-0.010768696665763855,0.006531864870339632
23229102373,-0.324675709009171,-9.71123123168945,-0.476812303066254,0.003139144042506814,-0.014303088188171387,0.008564146235585213
23249000072,-0.323075145483017,-9.7061824798584,-0.467683851718903,0.0021096288692206144,-0.013635160401463509,0.007106831297278404
23259156465,-0.333651393651962,-9.70786476135254,-0.469779700040817,0.0013016845332458615,-0.012711009941995144,0.005804761778563261
23339004993,-0.321974337100983,-9.70651054382324,-0.463723301887512,0.0002648349618539214,-0.015541858971118927,0.00789540447294712
23539785385,-0.339369833469391,-9.70853614807129,-0.470191091299057,0.0007617046358063817,-0.0150082316249609,0.008333643898367882
23549814224,-0.327486395835876,-9.71798229217529,-0.468911170959473,0.00038126218714751303,-0.014553734101355076,0.008291509933769703
23559700489,-0.321139812469482,-9.7048168182373,-0.474938333034515,9.735082130646333e-05,-0.013905569911003113,0.008315126411616802
23759838819,-0.333894938230515,-9.71968078613281,-0.455055326223373,0.002568852622061968,-0.01140778698027134,0.00501762330532074
23769126176,-0.336917161941528,-9.71597099304199,-0.462395220994949,0.001108533120714128,-0.010579006746411324,0.0047104195691645145
23779541969,-0.316997140645981,-9.71291542053223,-0.476904273033142,-0.0005197247373871505,-0.010942945256829262,0.0057210479862987995
23839038848,-0.326647996902466,-9.7146053314209,-0.473832607269287,-0.0025702270213514566,-0.009931779466569424,0.007415770553052425
23919470071,-0.33870479464531,-9.72102737426758,-0.463666170835495,-0.001281465869396925,-0.006016647443175316,0.008969511836767197
23989841222,-0.325529396533966,-9.7108850479126,-0.472419649362564,-0.0004726093902718276,-0.014142101630568504,0.011105988174676895
23999659061,-0.328605562448502,-9.71225357055664,-0.461144387722015,0.001688379212282598,-0.013835083693265915,0.010640976019203663
24199375152,-0.335599482059479,-9.71124458312988,-0.473987251520157,-0.002086266875267029,-0.011981523595750332,0.004450659267604351
24379880428,-0.330930411815643,-9.70752048492432,-0.474868714809418,-0.0034601513762027025,-0.015302535146474838,0.009248350746929646
24390230178,-0.319140881299973,-9.71493530273438,-0.473710805177689,-0.0019825773779302835,-0.016537267714738846,0.009274275973439217
24399675369,-0.326535761356354,-9.70751762390137,-0.468372732400894,-0.0009998627938330173,-0.01689254865050316,0.008310901932418346
24409630060,-0.319984704256058,-9.71394157409668,-0.471118986606598,-0.0003106743679381907,-0.01615755259990692,0.006847648415714502
24439311504,-0.33152961730957,-9.7186450958252,-0.477319955825806,0.0023289299570024014,-0.011437147855758667,0.0047718253917992115
24479273796,-0.326830804347992,-9.71865177154541,-0.474362343549728,-0.00014573120279237628,-0.013056818395853043,0.0038207441102713346
24648888111,-0.332041174173355,-9.71798419952393,-0.475066810846329,-0.0014842236414551735,-0.013066706247627735,0.0056379372254014015
24659627199,-0.329090505838394,-9.71358489990234,-0.473893165588379,-0.0019219134701415896,-0.01527398731559515,0.004753426183015108
24669166088,-0.319274872541428,-9.71564102172852,-0.463596135377884,-0.0027993125841021538,-0.01761580817401409,0.00400962308049202
24709512948,-0.318420916795731,-9.71122646331787,-0.474598586559296,-0.0009101629257202148,-0.013995612971484661,0.005474461242556572
24779568910,-0.33006751537323,-9.71595668792725,-0.471196889877319,0.001370014389976859,-0.011547871865332127,0.003406786359846592
24789663791,-0.31901690363884,-9.7149486541748,-0.46909487247467,0.0022605375852435827,-0.013875013217329979,0.003435450606048107
24799876213,-0.330387324094772,-9.72033405303955,-0.478282988071442,0.002717036986723542,-0.015811866149306297,0.003854965791106224
25159945487,-0.328250497579575,-9.70582675933838,-0.476913243532181,0.004784875083714724,-0.015188638120889664,0.00442466838285327
25169940948,-0.314107269048691,-9.72641563415527,-0.471372395753861,0.004559310153126717,-0.015017092227935791,0.00293446215800941
25179820537,-0.324707269668579,-9.70954036712647,-0.469335108995438,0.004183667246252298,-0.014787391759455204,0.001964767463505268
25329643011,-0.318635255098343,-9.70109558105469,-0.472046762704849,0.00715587567538023,-0.011042280122637749,0.005741637200117111
25339934110,-0.31915283203125,-9.71728515625,-0.48250937461853,0.007032965775579214,-0.012132782489061356,0.005752213299274445
25379720211,-0.320269733667374,-9.72101020812988,-0.473600268363953,0.006684087682515383,-0.013461041264235973,0.001728497794829309
25389632463,-0.322240740060806,-9.7152738571167,-0.474700748920441,0.006310750264674425,-0.014049791730940342,0.001431345590390265
25600160121,-0.323838531970978,-9.70346260070801,-0.48027029633522,0.005893368739634752,-0.013201084919273853,0.006500498857349157
25770542383,-0.322484284639359,-9.71663570404053,-0.468559801578522,0.002898933831602335,-0.01205403357744217,0.002945994259789586
25781065464,-0.32490736246109,-9.71866416931152,-0.467822521924973,0.003186457557603717,-0.012292400933802128,0.005366378463804722
25790133714,-0.310616672039032,-9.70616912841797,-0.468244880437851,0.003210039110854268,-0.012545056641101837,0.007870974019169807
25802640199,-0.329108268022537,-9.71056842803955,-0.470129489898682,0.0032697650603950024,-0.012802033685147762,0.00984071847051382
25809891223,-0.321251064538956,-9.70582580566406,-0.478813290596008,0.003644893877208233,-0.012864282354712486,0.010863708332180977
25820198535,-0.31573611497879,-9.70749950408936,-0.478229939937592,0.004273609723895788,-0.012451504357159138,0.010693802498281002
25829711198,-0.325648993253708,-9.71596050262451,-0.46941602230072,0.004952027928084135,-0.011513511650264263,0.009296146221458912
25849348306,-0.323534280061722,-9.71428298950195,-0.470027476549149,0.006097497884184122,-0.009561298415064812,0.005003058817237616
25867769718,-0.318343669176102,-9.71122646331787,-0.475431054830551,0.006507035344839096,-0.009418186731636524,0.003807325614616275
26289255380,-0.321940541267395,-9.71473503112793,-0.462607681751251,0.0026350170373916626,-0.01812083274126053,0.005973247345536947
26299194574,-0.318691492080688,-9.71640396118164,-0.471540123224258,0.002327940659597516,-0.018513662740588188,0.005485364235937595
26308972597,-0.337516665458679,-9.7032585144043,-0.46357262134552,0.002180730691179633,-0.01836097240447998,0.005727752577513456
26320028066,-0.320171177387238,-9.70831775665283,-0.463513016700745,0.0021422419231384993,-0.017423054203391075,0.006731981411576271
26330283880,-0.334414601325989,-9.7089786529541,-0.480138838291168,0.001951906830072403,-0.015615187585353851,0.008228653110563755
26339973211,-0.327917844057083,-9.71504878997803,-0.475596159696579,0.001403213944286108,-0.013209972530603409,0.009611786343157291
26349891424,-0.324752479791641,-9.70357131958008,-0.479347109794617,0.000502757029607892,-0.01084869634360075,0.010067464783787727
26567930936,-0.329303830862045,-9.70999431610108,-0.466311156749725,-0.00011669536615954712,-0.008730820380151272,0.008247512392699718
34739204168,-0.31880396604538,-9.71000003814697,-0.466193169355393,0.0020278170704841614,-0.013340860605239868,0.007492306642234325
34749063014,-0.32772433757782,-9.69919872283936,-0.469082832336426,0.0014602235751226544,-0.013060485012829304,0.0081319035962224
34859000682,-0.321189910173416,-9.71237277984619,-0.461356937885284,-0.0022663711570203304,-0.012916211038827896,0.012184244580566883
34869112730,-0.325414687395096,-9.71675682067871,-0.465095549821854,-0.001229394692927599,-0.013877705670893192,0.012615933082997799
34969152212,-0.328009516000748,-9.70831489562988,-0.470046788454056,0.002354428870603442,-0.009951697662472725,0.009719006717205048
34979100942,-0.326440066099167,-9.7133674621582,-0.471221059560776,0.0017864865949377418,-0.011390811763703823,0.009171255864202976
34989027976,-0.326105445623398,-9.72012615203858,-0.471946120262146,0.0003825665626209229,-0.012987651862204075,0.008884184062480927
34999464988,-0.331204771995544,-9.7234935760498,-0.469833016395569,-0.0011548759648576379,-0.014308007434010506,0.008675137534737587
35018704175,-0.32711261510849,-9.71438694000244,-0.467109531164169,-0.0027076720725744963,-0.016291258856654167,0.007976689375936985
35229046106,-0.327861815690994,-9.71101093292237,-0.467391163110733,0.0026864095125347376,-0.01574798859655857,0.008819683454930782
35239997386,-0.328304141759872,-9.71810626983643,-0.463730454444885,0.002385728759691119,-0.01282886229455471,0.007856372743844986
35250164270,-0.327835083007812,-9.71436977386475,-0.476515114307404,0.001550447428599,-0.010227017104625702,0.007113764062523842
35260030746,-0.334226667881012,-9.70866012573242,-0.465927213430405,0.00039274219307117164,-0.008893091231584549,0.006911105941981077
35269379615,-0.328286677598953,-9.71135234832764,-0.464522153139114,-0.0008592624217271805,-0.009028836153447628,0.007194881327450275
35490615606,-0.322867691516876,-9.71775054931641,-0.473535656929016,0.0030494460370391607,-0.015854788944125175,0.007146903313696384
35668579339,-0.336191564798355,-9.72010803222656,-0.472921699285507,-0.006322519388049841,-0.010850543156266212,0.007383913733065128
35678307771,-0.333677560091019,-9.71404552459717,-0.474352210760117,-0.005972316954284906,-0.011887936852872372,0.0068952785804867744
35799680948,-0.333064407110214,-9.71167278289795,-0.475195050239563,0.00547333387658,-0.01923353411257267,0.009602317586541176
35908748388,-0.319920569658279,-9.70965003967285,-0.472557306289673,0.0026324877981096506,-0.013184621930122375,0.009749733842909336
36017659425,-0.324203431606293,-9.7056245803833,-0.465615183115006,0.002494219457730651,-0.012203884311020374,0.00919724814593792
36028638601,-0.326030373573303,-9.70493221282959,-0.470098853111267,0.0026296901050955057,-0.011082267388701439,0.010654686018824577
36038208961,-0.320602029561997,-9.71844387054444,-0.46165081858635,0.0031812142115086317,-0.010079750791192055,0.011517728678882122
36397953271,-0.32508111000061,-9.70762825012207,-0.470874547958374,0.0016810528468340635,-0.007964533753693104,0.009643706493079662
36407918214,-0.332142472267151,-9.71438598632812,-0.46911895275116,0.0021937584970146418,-0.008686676621437073,0.0089817950502038
36588438510,-0.314311742782593,-9.7109899520874,-0.475332319736481,0.007638881914317608,-0.008679768070578575,0.009096721187233925
36698403835,-0.329506576061249,-9.70659351348877,-0.478341907262802,0.003919880837202072,-0.011818531900644302,0.0030932154040783644
36708520889,-0.32214429974556,-9.7218132019043,-0.465054631233215,0.002632695948705077,-0.013956466689705849,0.0031076320447027683
36719312906,-0.319920927286148,-9.71236610412598,-0.45970693230629,0.0014715277357026935,-0.015730757266283035,0.0036177122965455055
36728097200,-0.33050337433815,-9.71404933929444,-0.472020089626312,0.0008180049480870366,-0.01671936735510826,0.004769823979586363
36779291391,-0.312885999679565,-9.71202087402344,-0.470248013734818,0.0032887798734009266,-0.011213986203074455,0.010125086642801762
36828733682,-0.315221816301346,-9.71336555480957,-0.470281958580017,0.00703518558293581,-0.0076209548860788345,0.005720904562622309
36838586568,-0.321698874235153,-9.70392036437988,-0.467112183570862,0.006374370772391558,-0.007610551547259092,0.006103548686951399
36848387479,-0.326110363006592,-9.72248649597168,-0.471713900566101,0.006040885113179684,-0.007738315500319004,0.006973191164433956
36858472108,-0.322237133979797,-9.70560932159424,-0.468155890703201,0.006044385489076376,-0.008165880106389523,0.008006063289940357
37008851528,-0.320417761802673,-9.71910953521729,-0.474717378616333,0.0017203408060595393,-0.015493005514144897,0.006424663122743368
37248519659,-0.315186053514481,-9.71168422698975,-0.467796057462692,0.005530723836272955,-0.014398422092199326,0.006535416003316641
37258513212,-0.320981681346893,-9.7153959274292,-0.465182811021805,0.005014709662646055,-0.011676152236759663,0.0062477136962115765
37678491830,-0.317395955324173,-9.70524692535401,-0.478375613689423,0.0010851528495550156,-0.01148973312228918,0.005938784219324589
37688722133,-0.329667001962662,-9.71068477630615,-0.466603100299835,-0.0007152947364374995,-0.011996841058135033,0.006867553573101759
37698387145,-0.321334660053253,-9.71201324462891,-0.476499974727631,-0.0021810003090649843,-0.01211435068398714,0.007027082610875368
37708294868,-0.32040610909462,-9.71066093444824,-0.47715950012207,-0.0026251524686813354,-0.011691980995237827,0.006505244877189398
37718357324,-0.321045160293579,-9.71235656738281,-0.465872406959534,-0.0018321865936741233,-0.011018199846148491,0.005599459633231163
37728243589,-0.320440948009491,-9.71876811981201,-0.471104681491852,-1.489003625465557e-05,-0.010504316538572311,0.004694222006946802
37798709392,-0.318511158227921,-9.71370601654053,-0.472867339849472,-3.1044837669469416e-05,-0.016467083245515823,0.006021338049322367
38119259357,-0.332388609647751,-9.71640872955322,-0.470899045467377,0.005113475490361452,-0.010873164981603622,0.009491427801549435
38129152059,-0.333429396152496,-9.70529174804688,-0.458809822797775,0.0038882822263985872,-0.011706305667757988,0.0091144610196352
38278040647,-0.32365220785141,-9.71472644805908,-0.468669503927231,0.0004790582461282611,-0.014645449817180634,0.011335441842675209
38289383411,-0.319300353527069,-9.70930862426758,-0.476938903331757,0.001842303085140884,-0.013523398898541927,0.010693041607737541
38299083232,-0.33032488822937,-9.70223426818848,-0.467397421598435,0.0029321727342903614,-0.012671355158090591,0.009888228960335255
38309038162,-0.334519505500793,-9.70898628234863,-0.469854325056076,0.0035017281770706177,-0.011939691379666328,0.008946361020207405
38398844480,-0.332177191972733,-9.71303749084473,-0.473360538482666,-0.0029780615586787462,-0.013097887858748436,0.010928122326731682
38408993005,-0.333148062229156,-9.70730590820312,-0.46596160531044,-0.001900200266391039,-0.013887339271605015,0.010211538523435593
38418863773,-0.326474547386169,-9.71337413787842,-0.468803018331528,-0.0008854669285938144,-0.014224368147552013,0.00903867557644844
38518899679,-0.334112823009491,-9.70933437347412,-0.459995061159134,0.0028507611714303493,-0.017992807552218437,0.005544668063521385
38528642177,-0.321282178163528,-9.71977519989014,-0.475160837173462,0.002495601074770093,-0.01809677667915821,0.0066660428419709206
38538658142,-0.335401445627213,-9.70224571228027,-0.46374449133873,0.0018702021334320307,-0.017242996022105217,0.00860959105193615
38548643350,-0.336309134960175,-9.71708106994629,-0.474016845226288,0.0009324855054728687,-0.01569044031202793,0.010521883144974709
38558275222,-0.323712795972824,-9.71100807189941,-0.4727803170681,-0.00036694802111014724,-0.013869616203010082,0.011636425741016865
38568431615,-0.329769760370255,-9.71641063690186,-0.467098563909531,-0.0018921284936368465,-0.012278209440410137,0.011593064293265343
38578086376,-0.325711160898209,-9.69784736633301,-0.470834910869598,-0.0031893006525933743,-0.011283893138170242,0.010548185557126999
38589136362,-0.325714945793152,-9.7211332321167,-0.471204191446304,-0.00378680182620883,-0.010845779441297054,0.009054701775312424
38599161624,-0.325217097997665,-9.71909427642822,-0.474591314792633,-0.0035023202653974295,-0.010748426429927349,0.007663121446967125
38608880519,-0.330003947019577,-9.71370506286621,-0.46971595287323,-0.0024924185127019882,-0.011057592928409576,0.0066305664367973804
38618910551,-0.329349040985107,-9.71236228942871,-0.471356868743896,-0.0012001263676211238,-0.011929996311664581,0.0059876455925405025
38628814220,-0.324266672134399,-9.7106819152832,-0.46799248456955,-0.0001547468127682805,-0.013144156895577908,0.00572429783642292
38638652086,-0.329619705677032,-9.7130298614502,-0.473010063171387,0.00034498373861424625,-0.014172900468111038,0.005830717738717794
39918266534,-0.328539460897446,-9.7137041091919,-0.473098933696747,0.0030080522410571575,-0.00945210736244917,0.009136802516877651
40099101781,-0.32293227314949,-9.7069673538208,-0.469274163246155,0.008939092047512531,-0.008039377629756927,0.008458131924271584
40109243631,-0.327566683292389,-9.71539783477783,-0.479626327753067,0.00862857885658741,-0.007391714490950108,0.007839027792215347
40119138002,-0.329448938369751,-9.70864105224609,-0.474491894245148,0.007261993829160929,-0.007470506243407726,0.00676072807982564
40129020214,-0.320541828870773,-9.70257377624512,-0.468101352453232,0.005171520169824362,-0.008218669332563877,0.005435180850327015
40168471813,-0.328203171491623,-9.71808815002441,-0.47228467464447,-0.00029696975252591074,-0.011164423078298569,0.005612368229776621
40188538551,-0.333589315414429,-9.71573925018311,-0.468112200498581,0.001323928008787334,-0.012767118401825428,0.00948539562523365
40469010114,-0.33170884847641,-9.7103271484375,-0.47492179274559,0.007086907513439655,-0.008470114320516586,0.00517222099006176
40658359766,-0.332920849323273,-9.70864486694336,-0.472731202840805,0.00604776619002223,-0.010766257531940937,0.006409475114196539
40669458150,-0.329814791679382,-9.7028923034668,-0.483653962612152,0.006200825795531273,-0.00986106414347887,0.0065118358470499516
40679426193,-0.32635235786438,-9.72179222106934,-0.481113791465759,0.005361079704016447,-0.009013378992676735,0.006280518602579832
40739005327,-0.312944680452347,-9.70358371734619,-0.476498961448669,7.787573122186586e-05,-0.013684555888175964,0.003512910334393382
40748984813,-0.325300484895706,-9.7126989364624,-0.47377622127533,0.0014339437475427985,-0.014054223895072937,0.004301238805055618
40759661197,-0.329102843999863,-9.71337223052979,-0.475016295909882,0.0028812664095312357,-0.013730703853070736,0.0046272664330899715
40768459796,-0.322940468788147,-9.70798587799072,-0.46497905254364,0.004038121085613966,-0.012888485565781593,0.004472776781767607
40778616189,-0.335146069526672,-9.71203136444092,-0.468970775604248,0.004461914300918579,-0.011888688430190086,0.004218283109366894
40788438558,-0.331201791763306,-9.7039213180542,-0.471363216638565,0.0038903774693608284,-0.010998060926795006,0.0043600499629974365
41228774070,-0.332205504179001,-9.71944046020508,-0.471183806657791,0.0052753412164747715,-0.01222092192620039,0.005320023279637098
41409144878,-0.318658977746964,-9.7086353302002,-0.469368457794189,0.0046535637229681015,-0.011398323811590672,0.004259770270437002
41419041395,-0.328455924987793,-9.71775817871094,-0.472719460725784,0.005105110350996256,-0.012573457323014736,0.004439177922904491
41429842948,-0.326372414827347,-9.70662975311279,-0.463046461343765,0.0050300247967243195,-0.01363229937851429,0.005118224769830704
41448678016,-0.327496349811554,-9.72923564910889,-0.464430540800095,0.0033649103716015816,-0.014407023787498474,0.007600646000355482
41678596258,-0.321311742067337,-9.70594882965088,-0.465304136276245,0.0020889502484351397,-0.013172201812267303,0.005914461333304644
41758792400,-0.336542069911957,-9.71979522705078,-0.468269050121307,0.006012716330587864,-0.010737924836575985,0.004867234732955694
41768680810,-0.326719373464584,-9.71673202514648,-0.471709191799164,0.005163056775927544,-0.010003502480685711,0.003837865311652422
41778638601,-0.326495230197906,-9.7116813659668,-0.471850574016571,0.0036350421141833067,-0.010084372013807297,0.0036313417367637157
41848586797,-0.320563405752182,-9.71167945861816,-0.471064537763596,0.003997338470071554,-0.01533513143658638,0.008097231388092041
42198991060,-0.334638208150864,-9.71540927886963,-0.469589710235596,0.0026186800096184015,-0.006353381555527449,0.004321301821619272
42208637237,-0.329121798276901,-9.71032619476319,-0.477494984865189,0.0031558123882859945,-0.007138129789382219,0.004757088143378496
42218425750,-0.321808218955994,-9.70829868316651,-0.47419461607933,0.0027463415171951056,-0.008557725697755814,0.00518348254263401
42229392051,-0.335599184036255,-9.71066474914551,-0.473903775215149,0.0015210671117529273,-0.010167884640395641,0.005347583442926407
42239358663,-0.327181220054626,-9.7133617401123,-0.478442013263702,-2.32647180382628e-05,-0.011414462700486183,0.005100801587104797
42249101877,-0.317801624536514,-9.71572113037109,-0.478582412004471,-0.0014035635394975543,-0.012060778215527534,0.004450084175914526
42258757591,-0.318864047527313,-9.71134281158447,-0.475461691617966,-0.0021274650935083628,-0.012278190813958645,0.0034749412443488836
42278289794,-0.324312746524811,-9.71235370635987,-0.474508196115494,-0.0004884649533778429,-0.012594788335263729,0.0013707063626497984
42859358787,-0.333074569702148,-9.7120361328125,-0.466220885515213,0.003359665395691991,-0.010735612362623215,0.004718029405921698
42869143962,-0.329995185136795,-9.7106819152832,-0.466355264186859,0.0022956766188144684,-0.010872077196836472,0.004819280933588743
42878846406,-0.320949584245682,-9.71504878997803,-0.473237305879593,0.0009810763876885176,-0.011217407882213593,0.005274702794849873
42938889503,-0.322152853012085,-9.72586536407471,-0.462809473276138,0.005116494372487068,-0.011384254321455956,0.009049284271895885
42948492050,-0.330688297748566,-9.69918823242188,-0.476601034402847,0.0065448349341750145,-0.011161970905959606,0.008705000393092632
42959373712,-0.324266701936722,-9.71674823760987,-0.471111059188843,0.0069183846935629845,-0.011287596076726913,0.008113889954984188
42969300270,-0.324123293161392,-9.71235466003418,-0.475479811429977,0.006114152725785971,-0.011609101668000221,0.007405666168779135
42979115247,-0.318282037973404,-9.70526218414307,-0.46731424331665,0.004535525571554899,-0.011887310072779655,0.006636814214289188
42988930225,-0.332690387964249,-9.71269321441651,-0.472442120313644,0.0029123632702976465,-0.011958679184317589,0.005940705072134733
42998723506,-0.315723866224289,-9.71268558502197,-0.476427465677261,0.0018076305277645588,-0.011737554334104061,0.005494561977684498
43499222278,-0.32502207159996,-9.71673774719238,-0.475294321775436,0.004131206776946783,-0.014052875339984894,0.005296945571899414
43568985223,-0.313947707414627,-9.71403312683105,-0.473980665206909,0.0007856404990889132,-0.012980714440345764,0.0069253211840987206
43679133415,-0.321054965257645,-9.71099853515625,-0.477224946022034,0.0023908207658678293,-0.013276735320687294,0.0044143362902104855
43788727521,-0.331690758466721,-9.7103271484375,-0.476421415805817,0.0084579112008214,-0.0078007192350924015,0.00608814787119627
43909504175,-0.31739342212677,-9.70594882965088,-0.462153881788254,0.012143230997025967,-0.011742057278752327,0.0023404713720083237
43919205188,-0.313215106725693,-9.71471786499023,-0.473098635673523,0.012031965889036655,-0.012124491855502129,0.0023690485395491123
43928945064,-0.323211967945099,-9.70862674713135,-0.479627788066864,0.010904773138463497,-0.012504905462265015,0.003121378365904093
43979865789,-0.323408484458923,-9.70594310760498,-0.473130911588669,0.010243568569421768,-0.009499561972916126,0.0014222715981304646
44149348735,-0.313337981700897,-9.70997428894043,-0.478715926408768,0.013106629252433777,-0.00790493655949831,0.004981653764843941
44159352540,-0.311973631381989,-9.71571922302246,-0.477674514055252,0.012286040931940079,-0.008691114373505116,0.0048003834672272205
44168852090,-0.310174375772476,-9.70829105377197,-0.480929523706436,0.01139900740236044,-0.010016251355409622,0.004136355128139257
44208417415,-0.328918814659119,-9.71605968475342,-0.480841338634491,0.012804809026420116,-0.01291385293006897,0.0020367347169667482
44498397350,-0.321211606264114,-9.71201324462891,-0.48152482509613,0.005431793164461851,-0.017331115901470184,0.003752996912226081
44508402109,-0.334512174129486,-9.70525741577148,-0.479631960391998,0.005755630321800709,-0.01584477722644806,0.0033120405860245228
44517940521,-0.31086927652359,-9.71842384338379,-0.476606428623199,0.006440989673137665,-0.013556945137679577,0.002432428067550063
44569227457,-0.313695579767227,-9.70932674407959,-0.465161621570587,0.008712315931916237,-0.009951414540410042,0.0009788000024855137
44579009771,-0.315805912017822,-9.71674060821533,-0.474159419536591,0.009500153362751007,-0.011433745734393597,0.002727065933868289
44590297460,-0.323324382305145,-9.71538829803467,-0.471693754196167,0.009961257688701153,-0.01279765460640192,0.004590815864503384
44598679304,-0.31555512547493,-9.71978187561035,-0.47113910317421,0.010059843771159649,-0.013819459825754166,0.0061224717646837234
44609227657,-0.299731463193893,-9.71773624420166,-0.479472100734711,0.009896914474666119,-0.014608705416321754,0.007000157609581947
44658549547,-0.319189637899399,-9.71571636199951,-0.480092138051987,0.014842352829873562,-0.013539129868149757,0.002016883110627532
44668202638,-0.310533374547958,-9.72111225128174,-0.477453589439392,0.01462455466389656,-0.012400970794260502,0.0018188453977927566
45148083209,-0.317092448472977,-9.71200180053711,-0.479297816753387,0.004214856307953596,-0.011724280193448067,0.003608915489166975
46348353624,-0.327733099460602,-9.70729541778565,-0.472728997468948,-0.0031881998293101788,-0.014882874675095081,0.007080491632223129
46361877202,-0.329742193222046,-9.71405220031738,-0.471651792526245,-0.0020037181675434113,-0.014624347910284996,0.006276799365878105
46368228912,-0.332895070314407,-9.71236515045166,-0.472276151180267,-0.0008273730054497719,-0.014365134760737419,0.005881658289581537
46378278255,-0.322035133838654,-9.71708488464355,-0.468145877122879,-9.527937800157815e-05,-0.01392251905053854,0.005778403487056494
46388512611,-0.335688829421997,-9.69818878173828,-0.474537551403046,-1.604604949534405e-05,-0.013371201232075691,0.005874930415302515
46398134469,-0.330065786838531,-9.72553443908691,-0.468908995389938,-0.0004961900413036346,-0.012768055312335491,0.006092952098697424
46408647775,-0.330741614103317,-9.70561027526855,-0.473283797502518,-0.0013611651957035065,-0.01216394454240799,0.006330524571239948
46428252220,-0.324282765388489,-9.71370792388916,-0.471139132976532,-0.003743252018466592,-0.011492409743368626,0.0066054826602339745
46438165187,-0.328028947114945,-9.71608352661133,-0.465695202350616,-0.005000647157430649,-0.011428150348365307,0.006697843316942453
46448089838,-0.335712462663651,-9.71775245666504,-0.4766685962677,-0.005859231110662222,-0.011586110107600689,0.006878018379211426
47028633832,-0.334364593029022,-9.7130126953125,-0.486869037151337,-0.011371472850441933,-0.012195045128464699,0.005593020468950272
47038009166,-0.327596336603165,-9.72146511077881,-0.474387258291245,-0.011133861728012562,-0.011079622432589531,0.005749118980020285
47098397016,-0.339014023542404,-9.71572685241699,-0.474847674369812,-0.00598511379212141,-0.013433730229735374,0.0022660610266029835
47158311605,-0.330721378326416,-9.71100807189941,-0.473510533571243,-0.007798750884830952,-0.009057733230292797,0.007020140998065472
47168180227,-0.325582593679428,-9.70797920227051,-0.471012860536575,-0.006013381294906139,-0.010133671574294567,0.006475960370153189
47178189277,-0.338123321533203,-9.72148227691651,-0.465733736753464,-0.004027873277664185,-0.01112870592623949,0.005630764178931713
47188130617,-0.33216992020607,-9.71843910217285,-0.471735894680023,-0.0024774286430329084,-0.011910536326467991,0.004998398944735527
47198241710,-0.337879657745361,-9.7123441696167,-0.478274762630463,-0.0019112169975414872,-0.0127072399482131,0.00493925204500556
47208238601,-0.341053545475006,-9.70865154266358,-0.468692094087601,-0.0025681573897600174,-0.01365615613758564,0.005333187524229288
47259075403,-0.335261106491089,-9.70863819122315,-0.473472535610199,-0.007299449760466814,-0.011025883257389069,0.00545992748811841
47578467369,-0.325954169034958,-9.7059383392334,-0.476883202791214,-0.0012166223023086786,-0.013514388352632523,0.0057311332784593105
47588724613,-0.326375007629395,-9.7062816619873,-0.482738614082336,-0.0020978639367967844,-0.013645756058394909,0.006298774853348732
47598905801,-0.343611270189285,-9.70056247711182,-0.466230094432831,-0.002757197478786111,-0.013008462265133858,0.006432001478970051
49808617353,-0.338680058717728,-9.71404647827148,-0.471946954727173,-0.0007803242770023644,-0.00868969690054655,0.006012761499732733
49818724393,-0.329462081193924,-9.7076301574707,-0.474202066659927,-0.00021504056348931044,-0.007738424930721521,0.004866178147494793
49828698396,-0.333135962486267,-9.71337509155273,-0.471278667449951,-0.0004105112166143954,-0.007936093024909496,0.0040725660510361195
50568809032,-0.330817759037018,-9.72012901306152,-0.468255639076233,0.0019912593998014927,-0.012662598863244057,0.007239052094519138
50728113651,-0.329760193824768,-9.71202564239502,-0.467445135116577,0.004779532551765442,-0.010780559852719307,0.011876341886818409
50808830022,-0.32884755730629,-9.72179889678955,-0.472207635641098,0.0006735151400789618,-0.01285943016409874,0.006614444311708212
50818946599,-0.332082122564316,-9.7113618850708,-0.463893860578537,0.0012058285064995289,-0.015496136620640755,0.007749305572360754
50828967809,-0.328842163085938,-9.7262020111084,-0.469346910715103,0.0011361627839505672,-0.018177537247538567,0.00847585964947939
52709057569,-0.333475768566132,-9.71067237854004,-0.468034476041794,-0.006101987790316343,-0.014064449816942215,0.00836638268083334
52718814134,-0.325870990753174,-9.71809101104737,-0.47040855884552,-0.00566532788798213,-0.013174265623092651,0.008025316521525383
52779023647,-0.319882422685623,-9.70358371734619,-0.479067206382751,-0.0025027042720466852,-0.014590990729629993,0.006820192094892263
52789377212,-0.33356910943985,-9.7197790145874,-0.472801029682159,-0.002463530981913209,-0.014686164446175098,0.0066743092611432076
52799329996,-0.329591810703278,-9.71471214294434,-0.47188663482666,-0.0022109155543148518,-0.014489814639091492,0.006295668892562389
52858567237,-0.325411200523376,-9.71674060821533,-0.47680801153183,-0.0013282373547554016,-0.008573147468268871,0.0058012246154248714
53049085140,-0.336127251386643,-9.71472930908203,-0.471804291009903,-0.00391713622957468,-0.013281840831041336,0.0034338643308728933
53058968544,-0.326331228017807,-9.71236228942871,-0.466385126113892,-0.0032827307004481554,-0.011841489002108574,0.002592537086457014
53069000482,-0.333158582448959,-9.70864105224609,-0.4777712225914,-0.003207865869626403,-0.010716303251683712,0.002604495035484433
53079035997,-0.330680102109909,-9.70256996154785,-0.46854093670845,-0.0036190913524478674,-0.010075131431221962,0.00340954028069973
53088465213,-0.335172593593597,-9.70629024505615,-0.470932155847549,-0.004216309636831284,-0.009717575274407864,0.004599638748914003
53098293304,-0.32497563958168,-9.70965766906738,-0.468885719776154,-0.004770020954310894,-0.009266279637813568,0.005764316767454147
53108840465,-0.330463618040085,-9.70932006835938,-0.47082594037056,-0.005092674400657415,-0.008594855666160583,0.0067010801285505295
53118417263,-0.326031088829041,-9.70763111114502,-0.463678598403931,-0.004992829170078039,-0.007916555739939213,0.007384669966995716
53128126144,-0.335873663425446,-9.70999431610108,-0.468497455120087,-0.004427403677254915,-0.0075059798546135426,0.00792860146611929
53139419078,-0.32587918639183,-9.70798301696777,-0.464365571737289,-0.003625323763117194,-0.007475873921066523,0.008511630818247795
53149274110,-0.331937849521637,-9.7194299697876,-0.483944654464722,-0.0029296160209923983,-0.007815631106495857,0.009154261089861393
53159219980,-0.334806382656097,-9.70460605621338,-0.467590093612671,-0.0025695119984447956,-0.008513052016496658,0.009535598568618298
53169147014,-0.323980003595352,-9.71100234985352,-0.472547352313995,-0.002619239268824458,-0.009473313577473164,0.009246558882296085
53179280042,-0.328689873218536,-9.70965003967285,-0.469352215528488,-0.002952433889731765,-0.010397822596132755,0.008283037692308426
53189340591,-0.331841826438904,-9.70526599884033,-0.475746035575867,-0.0032547435257583857,-0.010945367626845837,0.00705902511253953
53889128923,-0.338422328233719,-9.71574974060059,-0.461125284433365,-0.003070652252063155,-0.013580093160271645,0.00756814144551754
53898049592,-0.326983690261841,-9.71474456787109,-0.463536441326141,-0.0031957444734871387,-0.014702821150422096,0.007389427162706852
53907783746,-0.335948288440704,-9.7002010345459,-0.476686239242554,-0.003254421055316925,-0.015353919938206673,0.0073828184977173805
53917490005,-0.337444603443146,-9.71977996826172,-0.470116823911667,-0.0034697172231972218,-0.01528380997478962,0.0078008295968174934
53927893400,-0.329975187778473,-9.71066379547119,-0.472277760505676,-0.004031387157738209,-0.014449873939156532,0.008333300240337849
53938248872,-0.342970728874207,-9.70832347869873,-0.464268028736115,-0.004982199054211378,-0.013206426054239273,0.008575953543186188
53947546958,-0.322342842817307,-9.72012710571289,-0.46836519241333,-0.006158710923045874,-0.012049395591020584,0.008496476337313652
53958298444,-0.328934341669083,-9.7123556137085,-0.468726933002472,-0.0071713184006512165,-0.011359818279743195,0.008370940573513508
53970231294,-0.333714812994003,-9.71065425872803,-0.4778932929039,-0.00751372380182147,-0.011342398822307587,0.008387880399823189
53978369951,-0.34069886803627,-9.70156955718994,-0.468460291624069,-0.007025931496173143,-0.011824390850961208,0.008406942710280418
53988256454,-0.323990523815155,-9.71810626983643,-0.464955478906632,-0.006145513616502285,-0.01225851010531187,0.008202271535992622
55027936220,-0.325933903455734,-9.71740341186523,-0.478963077068329,-0.0029241617303341627,-0.013878780417144299,0.005509663838893175
55038276195,-0.331214964389801,-9.71268844604492,-0.476494342088699,-0.0034266815055161715,-0.01481013186275959,0.005082596559077501
63587075471,-0.323087364435196,-9.71381664276123,-0.472836852073669,-0.007546631619334221,-0.013309366069734097,0.006010932382196188
63598589420,-0.343091517686844,-9.71146392822266,-0.475248843431473,-0.004703931976109743,-0.015560274943709373,0.0057123322039842606
63799220085,-0.324965596199036,-9.71819114685059,-0.474640876054764,-0.00617187237367034,-0.014526164159178734,0.006019982043653727
63807503223,-0.33667716383934,-9.72090816497803,-0.476031064987183,-0.005813360679894686,-0.015031455084681511,0.006370013114064932
63817239761,-0.327490866184235,-9.71347427368164,-0.475566446781158,-0.005139703396707773,-0.0161371398717165,0.006696268450468779
63827906608,-0.322760492563248,-9.7131404876709,-0.46948379278183,-0.004369636997580528,-0.01743418723344803,0.0065480927005410194
63837446928,-0.336854726076126,-9.71550178527832,-0.475969731807709,-0.003607995342463255,-0.018312327563762665,0.005889046937227249
63847016811,-0.334728449583054,-9.71719646453858,-0.46829628944397,-0.0029459227807819843,-0.018376920372247696,0.005038994364440441
63857922792,-0.316340506076813,-9.71246910095215,-0.476649969816208,-0.002596259582787752,-0.017694678157567978,0.0043720523826777935
63867804050,-0.33099502325058,-9.71685028076172,-0.476465135812759,-0.0025442466139793396,-0.016634654253721237,0.004057415761053562
63877365350,-0.33574104309082,-9.71484184265137,-0.464572012424469,-0.002474964829161763,-0.015587305650115013,0.004018071573227644
64747381210,-0.338712692260742,-9.71247291564941,-0.466440945863724,-0.004405088722705841,-0.01492946594953537,0.007477373816072941
65517862796,-0.32749417424202,-9.70944786071777,-0.467491388320923,-0.0023558828979730606,-0.015168190002441406,0.005473588593304157
65527522802,-0.33507114648819,-9.72125339508057,-0.469529151916504,-0.0034260712563991547,-0.015266901813447475,0.005994321312755346
65537644624,-0.322131991386414,-9.71618175506592,-0.479290902614594,-0.0035973775666207075,-0.015170136466622353,0.006536969915032387
65548483610,-0.334638297557831,-9.71518135070801,-0.465268582105637,-0.0031895344145596027,-0.015112379565834999,0.007003851234912872
65557765007,-0.324483066797257,-9.71348094940186,-0.475952595472336,-0.0025735115632414818,-0.015248910523951054,0.007177319843322039
65567621707,-0.330664575099945,-9.7144889831543,-0.480671495199204,-0.002020444255322218,-0.015487696044147015,0.006961481645703316
65578093767,-0.345716863870621,-9.71246147155762,-0.4790098965168,-0.0017500428948551416,-0.015611467882990837,0.006270560435950756
65617718458,-0.332336395978928,-9.70774269104004,-0.476276218891144,-0.005835560616105795,-0.014085659757256508,0.0009458838030695915
66148049354,-0.331642806529999,-9.70437717437744,-0.466283142566681,-0.005172560457140207,-0.013869154267013073,0.0045490628108382225
66157686471,-0.326261162757874,-9.70572853088379,-0.471498817205429,-0.004500211216509342,-0.013592521660029888,0.005011315923184156
66237967014,-0.329642742872238,-9.71010208129883,-0.475733548402786,-0.001714225858449936,-0.014757511205971241,0.005682380869984627
66247946023,-0.329673558473587,-9.70705890655518,-0.477429211139679,-0.000995753100141883,-0.01562090590596199,0.006835015490651131
66257916212,-0.327846884727478,-9.71011257171631,-0.469259589910507,-0.0004701937723439187,-0.015446350909769535,0.007782651577144861
66267996549,-0.337479442358017,-9.72024822235108,-0.462738335132599,-0.00045009562745690346,-0.014329254627227783,0.008025157265365124
66277698993,-0.337242811918259,-9.69763565063477,-0.469159334897995,-0.0010637175291776657,-0.01277933269739151,0.007742106914520264
66288873195,-0.338913470506668,-9.70706176757812,-0.47578763961792,-0.002391764195635915,-0.011292585171759129,0.007476068567484617
66297573804,-0.329231381416321,-9.69897747039795,-0.474846959114075,-0.004351706709712744,-0.009909442625939846,0.007434880826622248
66307749986,-0.327173054218292,-9.71146202087402,-0.468335390090942,-0.0064671579748392105,-0.008436662144958973,0.007374187000095844
66489303588,-0.326837509870529,-9.70639038085938,-0.477053493261337,-0.0007429243996739388,-0.013177404180169106,0.009473632089793682
67158069133,-0.335904508829117,-9.71584510803223,-0.473240077495575,-0.001632704515941441,-0.01744532585144043,0.008437614887952805
67237892389,-0.330711334943771,-9.7074031829834,-0.4759741127491,-0.00513799674808979,-0.009973221458494663,0.005432160571217537
67247695684,-0.323923975229263,-9.71281147003174,-0.464587837457657,-0.00377160613425076,-0.009705416858196259,0.006281742360442877
67257504701,-0.328900843858719,-9.70909118652344,-0.479979872703552,-0.002663583727553487,-0.0100829117000103,0.006848064251244068
67268589019,-0.32732281088829,-9.71313858032227,-0.467122107744217,-0.0018323991680517793,-0.010717465542256832,0.007019465789198875
67278454065,-0.335306316614151,-9.70910739898682,-0.466978877782822,-0.001269049127586186,-0.011276273988187313,0.006847357377409935
67288509607,-0.32874858379364,-9.71550846099854,-0.470248430967331,-0.0010850183898583055,-0.011604885570704937,0.006598087027668953
67298084020,-0.320824831724167,-9.7158317565918,-0.478516757488251,-0.0013434147695079446,-0.01175751630216837,0.006555376574397087
67308214187,-0.335174709558487,-9.70876407623291,-0.464543521404266,-0.0018160829786211252,-0.011928392574191093,0.006695356220006943
67318106651,-0.331969827413559,-9.71956062316895,-0.471706837415695,-0.0021936798002570868,-0.012251095846295357,0.00682857446372509
67328078269,-0.334968000650406,-9.71549797058105,-0.483811408281326,-0.002485103439539671,-0.012741024605929852,0.006854498293250799
67367430448,-0.333683788776398,-9.7141695022583,-0.462440967559814,-0.0026380755007267,-0.015528331510722637,0.0036754566244781017
67377384901,-0.332372039556503,-9.71753787994385,-0.463274300098419,-0.0016463245265185833,-0.016020841896533966,0.00344838947057724
67388568401,-0.314444988965988,-9.71279907226562,-0.481410652399063,-0.0010623561684042215,-0.01625889167189598,0.004482750315219164
67457659244,-0.323153674602509,-9.70435905456543,-0.475807577371597,-0.0006295607308857143,-0.010084914043545723,0.006093318108469248
67467789649,-0.327220976352692,-9.70403671264648,-0.469959259033203,-0.0027263369411230087,-0.010066807270050049,0.006171663757413626
67477359771,-0.334641128778458,-9.70741939544678,-0.475201845169067,-0.004346574191004038,-0.01024496927857399,0.0064011551439762115
68188697814,-0.330619186162949,-9.72157096862793,-0.47659957408905,-0.003876859089359641,-0.009679410606622696,0.006187836639583111
68198371410,-0.322046399116516,-9.7134895324707,-0.472587525844574,-0.0038189187180250883,-0.009422101080417633,0.005915693938732147
68209751367,-0.326516896486282,-9.70706748962402,-0.466143012046814,-0.003086733166128397,-0.010395221412181854,0.005772064905613661
68218502044,-0.328634262084961,-9.70672702789307,-0.477395713329315,-0.0018434610683470964,-0.012076755985617638,0.0057142856530845165
68228136062,-0.315328747034073,-9.71009254455566,-0.476954638957977,-0.0004255538806319237,-0.013434583321213722,0.005713661666959524
68237968206,-0.325592756271362,-9.70031833648682,-0.475703001022339,0.0009196759783662856,-0.01368047297000885,0.005577943287789822
69818800449,-0.339530169963837,-9.7249641418457,-0.471215516328812,-0.0034140159841626883,-0.012822714634239674,0.005590462125837803
69999162197,-0.328096985816956,-9.7067461013794,-0.467888027429581,0.0023312612902373075,-0.008621000684797764,0.0073341806419193745
70008944749,-0.333858579397202,-9.70573139190674,-0.470857679843903,0.0021947501227259636,-0.009413073770701885,0.008031658828258514
70017929315,-0.339631319046021,-9.72125816345215,-0.47060564160347,0.0013714643428102136,-0.009919512085616589,0.008368570357561111
70068469285,-0.332984030246735,-9.71821212768555,-0.471913158893585,-0.006766895297914743,-0.012788796797394753,0.005189897026866674
70078052997,-0.321543902158737,-9.70841503143311,-0.470400780439377,-0.00645709503442049,-0.013674115762114525,0.0044239903800189495
70148117303,-0.332100838422775,-9.71852684020996,-0.483564764261246,-0.0014986132737249136,-0.010144422762095928,0.004952955991029739
70157867193,-0.32590126991272,-9.70537853240967,-0.475082784891129,-0.0010293010855093598,-0.009844859130680561,0.004279505927115679
70168196201,-0.327223390340805,-9.70571231842041,-0.475772798061371,-0.0006299932138063014,-0.010474640876054764,0.003261542646214366
70232886075,-0.340511709451675,-9.71922874450684,-0.467528134584427,0.0004429061955306679,-0.013798517175018787,0.007658577989786863
70617847204,-0.333097904920578,-9.71821117401123,-0.468565583229065,-0.001991797238588333,-0.008248572237789631,0.0020173441153019667
70627592802,-0.330548405647278,-9.71450519561768,-0.46894896030426,-0.00165444309823215,-0.007798844017088413,0.002268646378070116
70637507438,-0.331460893154144,-9.69862079620362,-0.474543303251267,-0.0009239192004315555,-0.007691362872719765,0.002961427439004183
70648176908,-0.327123075723648,-9.71450042724609,-0.470657974481583,-0.0004112510068807751,-0.00810809526592493,0.004138734191656113
70698552131,-0.331996858119965,-9.70673370361328,-0.469639956951141,-0.002155388006940484,-0.008859018795192242,0.006035222206264734
70708308458,-0.328946173191071,-9.71448612213135,-0.480791091918945,-0.0018444530433043838,-0.008336899802088737,0.005807958077639341
70718448400,-0.342662453651428,-9.71517372131348,-0.467961192131042,-0.0015896138502284884,-0.008234936743974686,0.0058517479337751865
71407591104,-0.321228891611099,-9.71010303497315,-0.471078544855118,-0.0021366323344409466,-0.010957062244415283,0.004477996379137039
71426862478,-0.325507491827011,-9.70673751831055,-0.470325708389282,-0.00064239272614941,-0.011438355781137943,0.006578792352229357
71556990861,-0.333555310964584,-9.71819114685059,-0.479836910963059,0.0011960461270064116,-0.011354953981935978,0.005871843546628952
71627274990,-0.324592918157578,-9.71245956420898,-0.481149464845657,-0.004205548204481602,-0.013950527645647526,0.004179293755441904
71681227684,-0.326982736587524,-9.70943355560303,-0.474000483751297,0.0018506473861634731,-0.011064319871366024,0.004331857431679964
71747410535,-0.338190048933029,-9.71113109588623,-0.465857744216919,-0.00507134897634387,-0.014700319617986679,0.008445177227258682
71757887840,-0.33096182346344,-9.70302486419678,-0.469958305358887,-0.0043049464002251625,-0.014845934696495533,0.008177397772669792
71893649578,-0.325931996107101,-9.70740127563477,-0.475094228982925,-0.0017392319859936833,-0.011474331840872765,0.0020065265707671642
72057728052,-0.333862155675888,-9.7104434967041,-0.475235968828201,-0.0048062619753181934,-0.012304265983402729,0.005638427566736937
72157501459,-0.324624121189117,-9.70909023284912,-0.473372489213944,-0.0006590651464648545,-0.012073508463799953,0.006852384656667709
72246819972,-0.329423040151596,-9.70639705657959,-0.478983521461487,0.0014882561517879367,-0.013356299139559269,0.0027727510314434767
72327461957,-0.322411864995956,-9.70809650421143,-0.462512522935867,-0.0030518926214426756,-0.008223879151046276,0.0012274457840248942
72337190151,-0.328753918409348,-9.72427463531494,-0.471430361270905,-0.002849005162715912,-0.008198274299502373,0.0018946238560602069
72347216129,-0.327106148004532,-9.70809650421143,-0.466575086116791,-0.0018343274714425206,-0.009123110212385654,0.003498914884403348
72356683015,-0.332573413848877,-9.71416282653809,-0.468003243207932,-0.0005640290910378098,-0.0107302600517869,0.005708983168005943
72406982898,-0.322199702262878,-9.71415519714355,-0.466812163591385,-0.0024853977374732494,-0.01203417219221592,0.009959193877875805
74017962455,-0.33638858795166,-9.71888732910156,-0.468314439058304,-0.002236512489616871,-0.012898835353553295,0.007111814338713884
74027947425,-0.330685615539551,-9.71213245391846,-0.473288506269455,-0.0027282549999654293,-0.012552356347441673,0.007912417873740196
74037283420,-0.330825358629227,-9.70068168640137,-0.464742958545685,-0.0033147491049021482,-0.012282793410122395,0.0085362009704113
74047217130,-0.333032488822937,-9.71449661254883,-0.468365430831909,-0.003933131229132414,-0.011987298727035522,0.008881781250238419
74057319641,-0.325612246990204,-9.70707130432129,-0.468025207519531,-0.004460257012397051,-0.011464291252195835,0.009039954282343388
74067311763,-0.335031270980835,-9.71079063415527,-0.471925407648087,-0.004746092017740011,-0.010710394941270351,0.009146749041974545
74077520608,-0.326178580522537,-9.70537948608398,-0.473045289516449,-0.004713441710919142,-0.009915211237967014,0.00918188039213419
74087451219,-0.338123947381973,-9.70943450927734,-0.473843425512314,-0.00444162217900157,-0.009225450456142426,0.008970800787210464
74187623739,-0.338879555463791,-9.71518135070801,-0.472516149282455,0.0020573206711560488,-0.014813235960900784,0.006184736732393503
74817274808,-0.326974034309387,-9.69828891754151,-0.469187825918198,-0.002153130481019616,-0.01073087751865387,0.0061568450182676315
74908032894,-0.334489166736603,-9.71179866790772,-0.470887303352356,0.00016880562179721892,-0.012020841240882874,0.0006069489172659814
74918232917,-0.335727900266647,-9.7104549407959,-0.465271383523941,-0.0009840852580964565,-0.012484519742429256,0.00013112215674482286
75080560207,-0.322725296020508,-9.70775032043457,-0.475613862276077,-0.0010244041914120317,-0.012616390362381935,0.003362250979989767
75087850809,-0.332438588142395,-9.70908164978027,-0.482791572809219,-0.0012168737594038248,-0.013737034052610397,0.003042982192710042
75147175312,-0.337527513504028,-9.72259616851807,-0.469642877578735,-0.0015679922653362155,-0.0090703833848238,0.0036916444078087807
75238691568,-0.325918674468994,-9.70739841461182,-0.480765700340271,-0.005458151455968618,-0.009493044577538967,0.0036486589815467596
75508027791,-0.321866750717163,-9.70639133453369,-0.476409822702408,-0.0031513688154518604,-0.017040768638253212,0.007776225451380014
75518253326,-0.326760917901993,-9.70571899414062,-0.475100189447403,-0.0020937614608556032,-0.016637984663248062,0.007640372961759567
75687956571,-0.322815835475922,-9.70571231842041,-0.479145616292954,-0.0007400421891361475,-0.01535062212496996,0.0047577363438904285
75698005199,-0.329621225595474,-9.70841598510742,-0.47519314289093,-0.0007942692609503865,-0.014232505112886429,0.004217843525111675
75808379888,-0.331766486167908,-9.7023515701294,-0.472903162240982,-0.0015629944391548634,-0.009620925411581993,0.004864763934165239
76002676486,-0.318061947822571,-9.70639038085938,-0.477386653423309,-0.00342698791064322,-0.014172257855534554,0.0022694668732583523
76088492393,-0.317526519298553,-9.71551609039307,-0.467582643032074,0.0008019129745662212,-0.013192825019359589,0.0024359014350920916
76098276615,-0.322868406772614,-9.70774364471436,-0.477273017168045,0.00044504887773655355,-0.014171415008604527,0.0036541519220918417
76258551836,-0.319939345121384,-9.70639419555664,-0.475817918777466,-0.005549909546971321,-0.0108359195291996,0.005360505077987909
76267496347,-0.328554272651672,-9.72023582458496,-0.475175589323044,-0.004808478988707066,-0.010500021278858185,0.0050849346444010735
76277661085,-0.335669040679932,-9.71247959136963,-0.471215426921844,-0.0030292593874037266,-0.010768689215183258,0.0048351711593568325
76287652969,-0.33313250541687,-9.70337581634522,-0.467777073383331,-0.0010426489170640707,-0.01150304451584816,0.004616718739271164
76299649715,-0.326544046401978,-9.71416664123535,-0.467967242002487,0.00012893695384263992,-0.012299718335270882,0.004595749545842409
76307825803,-0.334320902824402,-9.72022819519043,-0.472856253385544,2.9769767934340052e-05,-0.012725512497127056,0.004991570021957159
76317926883,-0.326268643140793,-9.71347522735596,-0.476779788732529,-0.001060315640643239,-0.012798747979104519,0.005761078558862209
76328155279,-0.32891047000885,-9.71415901184082,-0.467738151550293,-0.0024935246910899878,-0.012902377173304558,0.006526639219373465
76358279705,-0.329959124326706,-9.71247291564941,-0.47291162610054,-0.003681755159050226,-0.01475720014423132,0.006559061352163553
77038074731,-0.331974446773529,-9.71586036682129,-0.46769854426384,-0.00025564312818460166,-0.0106294434517622,0.0032356230076402426
77338079929,-0.331460446119309,-9.70301818847656,-0.482747048139572,-0.0026265839114785194,-0.011182839050889015,0.003202971303835511
77347994804,-0.330858081579208,-9.70875835418701,-0.469039797782898,-0.0018720993539318442,-0.011011455208063126,0.002391909249126911
77358261585,-0.329171121120453,-9.71651363372803,-0.472580254077911,-0.0015867120819166303,-0.010409116744995117,0.0021118137519806623
77367158889,-0.322888195514679,-9.71314144134522,-0.472040385007858,-0.0017713489942252636,-0.009639931842684746,0.0023568477481603622
77477602005,-0.326243251562119,-9.71519088745117,-0.467577159404755,0.00022220781829673797,-0.012255573645234108,0.006054070312529802
77837633848,-0.32686311006546,-9.71718311309815,-0.473338514566422,-0.0033908188343048096,-0.012131432071328163,0.0031277805101126432
77847790718,-0.331690013408661,-9.7195520401001,-0.479370623826981,-0.0029201677534729242,-0.013410886749625206,0.0032723289914429188
77858105897,-0.323290646076202,-9.71077346801758,-0.473112523555756,-0.002811497077345848,-0.01469761785119772,0.0036577850114554167
77868042230,-0.338131755590439,-9.71212863922119,-0.475386619567871,-0.002920635277405381,-0.015745854005217552,0.0039688642136752605
77878087759,-0.325122475624084,-9.70808601379395,-0.471697896718979,-0.003063131822273135,-0.016217892989516258,0.004003035370260477
77887067794,-0.325592398643494,-9.72024917602539,-0.462466299533844,-0.0031638285145163536,-0.015890032052993774,0.0038851695135235786
78379085779,-0.329631805419922,-9.71009731292725,-0.478762656450272,-0.0011554117081686854,-0.01184377446770668,0.007327656727284193
78387913465,-0.334325194358826,-9.71653747558594,-0.461251109838486,-0.0013644527643918991,-0.012255776673555374,0.006918551865965128
78399206399,-0.339195191860199,-9.71247386932373,-0.469944208860397,-0.0018242484657093883,-0.012627131305634975,0.00610390305519104
78409053325,-0.33235177397728,-9.71349143981934,-0.469535231590271,-0.0027468737680464983,-0.012950380332767963,0.005529225803911686
78418794393,-0.330911666154862,-9.71483993530273,-0.46772313117981,-0.004154967609792948,-0.01323645282536745,0.0056459116749465466
78428150415,-0.330345690250397,-9.715163230896,-0.479859113693237,-0.005690291058272123,-0.01349045429378748,0.0063746594823896885
78488505125,-0.319750040769577,-9.7239408493042,-0.469811022281647,-0.002898764330893755,-0.012708175927400589,0.00504267169162631
78958002090,-0.334612458944321,-9.71281242370605,-0.473257064819336,-0.004724148195236921,-0.015522059984505177,0.0076850480400025845
78968354940,-0.328029364347458,-9.70909118652344,-0.473688453435898,-0.006936788093298674,-0.014986696653068066,0.006402293220162392
78978376388,-0.327781826257706,-9.70505905151367,-0.467764407396317,-0.008517352864146233,-0.014159944839775562,0.005202232860028744
78988760232,-0.318530052900314,-9.70976161956787,-0.477087557315826,-0.008864272385835648,-0.013004626147449017,0.004406503401696682
78997846841,-0.327572584152222,-9.71989154815674,-0.476620525121689,-0.007660030387341976,-0.011616217903792858,0.004121597856283188
79010482549,-0.329586178064346,-9.70740413665772,-0.480293959379196,-0.005136032588779926,-0.010403726249933243,0.004096179269254208
79021113395,-0.32482048869133,-9.70572662353516,-0.468291819095612,-0.0021095885895192623,-0.009795362129807472,0.0039300560019910336
79069514036,-0.323401033878326,-9.70639133453369,-0.475746959447861,0.0005813654861412942,-0.01009787805378437,0.005766487680375576
79078613281,-0.322587847709656,-9.70976734161377,-0.472684890031815,-0.0004957003402523696,-0.01057087816298008,0.007374770473688841
79087894201,-0.322639018297195,-9.71144580841065,-0.480752289295197,-0.0009757105144672096,-0.01107668038457632,0.0083932438865304
79158231735,-0.339622855186462,-9.72193336486816,-0.469401329755783,-0.0017005386762320995,-0.016468264162540436,0.004173556808382273
79168525218,-0.330353319644928,-9.72124004364014,-0.4721999168396,-0.0014986065216362476,-0.01748710311949253,0.0043141781352460384
80417768001,-0.329703569412231,-9.69862747192383,-0.481595188379288,-0.0036433394998311996,-0.016081076115369797,0.010232605040073395
80430060148,-0.324007123708725,-9.71346378326416,-0.477078080177307,-0.0018212797585874796,-0.015533407218754292,0.009128461591899395
80437489748,-0.334601581096649,-9.70843124389648,-0.466850399971008,-0.0002503182622604072,-0.014146877452731133,0.006983074359595776
80468052148,-0.330844610929489,-9.72225189208984,-0.479609102010727,-0.0008648698567412794,-0.008960302919149399,0.001954184379428625
80477336168,-0.320040434598923,-9.71078586578369,-0.471973836421967,-0.0027420292608439922,-0.008706157095730305,0.0025424312334507704
80747727632,-0.321123063564301,-9.71078014373779,-0.471760660409927,0.003584465477615595,-0.013004336506128311,0.005074263550341129
81077441453,-0.332809925079346,-9.72024345397949,-0.46784695982933,-0.0025193069595843554,-0.00602977117523551,0.0054439278319478035
81087945222,-0.329572826623917,-9.7097749710083,-0.471616059541702,-0.002900061197578907,-0.006231236271560192,0.005310977343469858
81097619295,-0.322136759757996,-9.71888446807862,-0.476897090673447,-0.0031285760924220085,-0.007596821989864111,0.00524276914075017
81108060598,-0.336794286966324,-9.71481990814209,-0.480849355459213,-0.003115028375759721,-0.009849894791841507,0.005253875628113747
81117243051,-0.324597895145416,-9.71347999572754,-0.474636316299438,-0.0028582222294062376,-0.012388527393341064,0.005043340846896172
81127658367,-0.323096930980682,-9.71753120422363,-0.473084568977356,-0.002473290776833892,-0.014594070613384247,0.004364635795354843
81137839317,-0.33171135187149,-9.70504474639893,-0.471337050199509,-0.002004865324124694,-0.016010789200663567,0.0033845780417323112
81147885322,-0.32904240489006,-9.71146202087402,-0.466892629861832,-0.0014626126503571868,-0.016381151974201202,0.0026096177753061056
81156946897,-0.331111580133438,-9.71181869506836,-0.462388634681702,-0.0010238437680527568,-0.015666723251342773,0.0025828215293586254
82397103309,-0.328699290752411,-9.72326850891113,-0.470995843410492,-0.0020218088757246733,-0.014379852451384068,0.005787944886833429
82420587301,-0.328467518091202,-9.70944023132324,-0.47027575969696,-0.003140171989798546,-0.013896096497774124,0.006147888954728842
82429183244,-0.329389572143555,-9.70975875854492,-0.480053395032883,-0.0034893888514488935,-0.014694483019411564,0.005662920884788036
82437091588,-0.329801380634308,-9.71618556976319,-0.469614833593369,-0.003869683714583516,-0.015610916540026665,0.004956232383847237
82447858572,-0.3304463326931,-9.70638370513916,-0.483691930770874,-0.004133256617933512,-0.015973811969161034,0.004180348012596369
82460371255,-0.331292569637299,-9.71044635772705,-0.472763270139694,-0.00416839262470603,-0.015498625114560127,0.0033923587761819363
82469144821,-0.322279393672943,-9.71819496154785,-0.476547598838806,-0.003981300629675388,-0.014307470992207527,0.002605576766654849
82477458000,-0.335735023021698,-9.70605659484863,-0.475679486989975,-0.003593315137550235,-0.012846024706959724,0.00190501450560987
82487625360,-0.330637007951737,-9.71449661254883,-0.471244335174561,-0.0030881832353770733,-0.011632145382463932,0.0014515372458845377
82499193668,-0.328298985958099,-9.72260665893555,-0.46686714887619,-0.0026951401960104704,-0.010990149341523647,0.0014274991117417812
82506896495,-0.320205956697464,-9.72190761566162,-0.4785495698452,-0.002542997943237424,-0.011160272173583508,0.001983433496206999
82517347335,-0.318423062562943,-9.69863224029541,-0.475747615098953,-0.002366031287238002,-0.012255849316716194,0.003013910260051489
82526978492,-0.319557130336761,-9.71347999572754,-0.471049129962921,-0.00164597702678293,-0.013807995244860649,0.004073274787515402
82537146091,-0.326524078845978,-9.7097692489624,-0.473691374063492,-9.892095840768889e-05,-0.014870922081172466,0.004744474310427904
82547263145,-0.323516607284546,-9.70199489593506,-0.47622275352478,0.00197947071865201,-0.014789626002311707,0.004936683923006058
82557664394,-0.322170376777649,-9.71415233612061,-0.474399387836456,0.0039002157282084227,-0.013544547371566296,0.004750813823193312
82567020893,-0.326505571603775,-9.71347236633301,-0.483574151992798,0.005090977996587753,-0.011618942953646183,0.004264338873326778
82577443599,-0.337409138679504,-9.7155122756958,-0.46757635474205,0.005297177936881781,-0.009833085350692272,0.0035099927335977554
83247385263,-0.32868504524231,-9.71146678924561,-0.470840185880661,-0.005307426210492849,-0.013811681419610977,0.003874625777825713
83258472442,-0.328958839178085,-9.71381378173828,-0.475180983543396,-0.004161575809121132,-0.012231025844812393,0.004391651600599289
84937148809,-0.326289594173431,-9.72944164276123,-0.470723688602448,0.005067220889031887,-0.011567985638976097,0.008021962828934193
84949531793,-0.328030705451965,-9.72370719909668,-0.473621070384979,0.0037429239600896835,-0.012747813016176224,0.008150816895067692
84958089828,-0.323825657367706,-9.71528244018555,-0.461265951395035,0.002822222886607051,-0.01691250130534172,0.00764553714543581
91710725784,-0.326793700456619,-9.70650386810303,-0.466326475143433,-0.007645857986062765,-0.014567931182682514,0.008375017903745174
