Timestamp,IMU_Raw_x,IMU_Raw_y,IMU_Raw_z,IMU_Linear_Acc_X,IMU_Linear_Acc_Y,IMU_Linear_Acc_Z
2099409818,-0.32581552863121,-9.71596813201904,-0.464090138673782,0.0016715724486857653,-0.014892862178385258,0.005113241728395224
2110099554,-0.33186200261116,-9.71158027648926,-0.469407916069031,0.0014009246369823813,-0.01423699501901865,0.006693507079035044
2118725538,-0.313864469528198,-9.70244216918945,-0.482853889465332,0.0008364017703570426,-0.013946155086159706,0.008320443332195282
2139114379,-0.322068214416504,-9.71392726898194,-0.474729388952255,0.0007990154554136097,-0.013899166136980057,0.009286055341362953
2149269819,-0.325772374868393,-9.70009422302246,-0.462100178003311,0.0017300249310210347,-0.014137755148112774,0.00801088660955429
2163099050,-0.328170776367188,-9.71594905853272,-0.476392358541489,0.0029194732196629047,-0.014490211382508278,0.006305695977061987
2189896821,-0.338826328516007,-9.71966552734375,-0.476346671581268,0.003145855152979493,-0.01494720671325922,0.004540218040347099
2200297594,-0.32875069975853,-9.70854568481445,-0.469463169574738,0.0009773029014468193,-0.015464968979358673,0.004946989472955465
2239343881,-0.329851925373077,-9.70785140991211,-0.481284350156784,-0.005705379880964756,-0.01692800410091877,0.005408576223999262
2249280214,-0.317094713449478,-9.70987415313721,-0.477779597043991,-0.004626303445547819,-0.01696811243891716,0.004915763158351183
2269274711,-0.322602689266205,-9.7183141708374,-0.478635489940643,-0.00011702819756465033,-0.015835734084248543,0.0030984862241894007
2289817571,-0.332800209522247,-9.71428775787354,-0.463412046432495,0.00467522582039237,-0.01378665305674076,0.0019218545639887452
2298875093,-0.326401948928833,-9.72000217437744,-0.477715164422989,0.005927979946136475,-0.013429044745862484,0.00232087098993361
2311876296,-0.329462915658951,-9.71493721008301,-0.473594576120377,0.00599957350641489,-0.01381411962211132,0.0034218947403132915
2399699449,-0.324059128761292,-9.70852661132812,-0.471392035484314,0.0009148147073574364,-0.014852479100227356,0.0035326292272657156
2440390348,-0.332790166139603,-9.70619201660156,-0.466895937919617,0.006768791936337948,-0.010458501055836678,0.005351472180336714
2449069023,-0.329260855913162,-9.71291255950928,-0.474900245666504,0.007245299872010946,-0.008255105465650558,0.00462759006768465
2460771083,-0.330128610134125,-9.70987892150879,-0.472612023353577,0.006743201520293951,-0.006492694839835167,0.004121226258575916
2469503164,-0.329850345849991,-9.71292304992676,-0.469973087310791,0.005236426368355751,-0.0059722973965108395,0.0040615033358335495
2479860544,-0.327664196491241,-9.71190452575684,-0.470639526844025,0.003122130408883095,-0.0069214836694300175,0.004422977101057768
2489649534,-0.336874186992645,-9.71630191802979,-0.468854427337646,0.0009861963335424662,-0.008992460556328297,0.0050969673320651054
2559360742,-0.32612669467926,-9.70987796783447,-0.477799415588379,-0.001635352149605751,-0.016286293044686317,0.007286905311048031
2570082187,-0.332672208547592,-9.70684337615967,-0.476237773895264,-0.002223819028586149,-0.01589428260922432,0.0066598523408174515
2580030679,-0.318728178739548,-9.70886611938477,-0.477250516414642,-0.0027286133263260126,-0.015276593156158924,0.005946202203631401
2600124597,-0.32326340675354,-9.70381546020508,-0.472469806671143,-0.0017322342609986663,-0.013305431231856346,0.0039482321590185165
2628793001,-0.324408620595932,-9.72574138641358,-0.471538990736008,0.003365285461768508,-0.012084264308214188,0.002788466401398182
2638845205,-0.328320413827896,-9.72000694274902,-0.471047878265381,0.004088148009032011,-0.012977533973753452,0.00326152634806931
2648612260,-0.334261298179626,-9.71696567535401,-0.47564235329628,0.003968153614550829,-0.01472086738795042,0.003917286172509193
2668950319,-0.317276775836945,-9.70348358154297,-0.465527087450028,0.0019231396727263927,-0.019259482622146606,0.004891315009444952
2861386060,-0.324808299541473,-9.71526527404785,-0.476476490497589,-0.00013491343997884542,-0.012187995947897434,0.007052347995340824
2868786334,-0.328167051076889,-9.72101974487305,-0.473268806934357,-0.0006417823024094105,-0.01232357881963253,0.008310483768582344
2879397153,-0.327981531620026,-9.71697235107422,-0.473590016365051,-0.000747182872146368,-0.01290898397564888,0.008478239178657532
2889704942,-0.320345103740692,-9.71798610687256,-0.468495965003967,-0.0004072946321684867,-0.014204426668584347,0.007732067722827196
2899534225,-0.325190246105194,-9.72303199768066,-0.475715011358261,0.0003744288987945765,-0.016104141250252724,0.006564834620803595
2932163953,-0.32741516828537,-9.72305774688721,-0.465093463659287,0.003165180329233408,-0.020707521587610245,0.0035465846303850412
2938606023,-0.333199471235275,-9.70921230316162,-0.475098103284836,0.002806665375828743,-0.02068144455552101,0.0030043204315006733
2967033147,-0.332543134689331,-9.71932983398438,-0.467378556728363,9.04422122403048e-05,-0.019411534070968628,0.004039002116769552
2989024877,-0.327857077121735,-9.72304153442383,-0.472002416849136,-0.003510246518999338,-0.01804128848016262,0.0062426310032606125
3041049718,-0.329216301441193,-9.71933460235596,-0.471517205238342,0.0010201230179518461,-0.015093435533344746,0.0027005854062736034
3208592414,-0.327547699213028,-9.71122264862061,-0.473641186952591,-0.0028010725509375334,-0.014001225121319294,0.004419951234012842
3218738317,-0.326399594545364,-9.71022987365723,-0.465459614992142,-0.002085182350128889,-0.013556193560361862,0.003644774667918682
3232110023,-0.32601323723793,-9.71257972717285,-0.476238042116165,-0.0010925483657047153,-0.013656223192811012,0.003411961253732443
3243338823,-0.335113435983658,-9.72035503387451,-0.469100832939148,-9.736997526488267e-06,-0.014039508998394012,0.003872342174872756
3258744716,-0.340257078409195,-9.72203636169434,-0.471867799758911,0.0008671521209180355,-0.015060488134622574,0.005621224641799927
3419528722,-0.324735850095749,-9.71427154541016,-0.47278892993927,-0.000386309577152133,-0.01985025964677334,0.0024517455603927374
3428855180,-0.327692657709122,-9.70382881164551,-0.463328838348389,-0.0020250524394214153,-0.019651135429739952,0.0037099916953593493
3449140787,-0.320929199457169,-9.70852088928223,-0.476194828748703,-0.0019237957894802094,-0.017020996659994125,0.006444355007261038
3459184646,-0.32638955116272,-9.69840621948242,-0.471569031476975,-0.000717233691830188,-0.015206387266516685,0.007391090039163828
3468308687,-0.33037480711937,-9.71395206451416,-0.464715421199799,0.0006708260625600815,-0.013443445786833763,0.007692395243793726
3642618417,-0.327376425266266,-9.7210283279419,-0.465195059776306,0.005194381810724735,-0.013067333959043026,0.005039275623857975
3669304609,-0.318329632282257,-9.71527862548828,-0.467628479003906,0.0030492341611534357,-0.01664033718407154,0.0072307828813791275
3684582471,-0.332648128271103,-9.71966552734375,-0.471641600131989,0.0011149633210152388,-0.01756402663886547,0.008298872038722038
3719026327,-0.332142412662506,-9.71428108215332,-0.467202752828598,-0.001179479993879795,-0.01605696603655815,0.007639163173735142
3757371187,-0.318616390228271,-9.71899223327637,-0.470946729183197,-0.0010014615254476666,-0.016157807782292366,0.0049847750924527645
3768236398,-0.336636364459991,-9.70954990386963,-0.465198040008545,-0.0009416271932423115,-0.016624702140688896,0.0042851390317082405
3774305820,-0.325110822916031,-9.71731948852539,-0.467469930648804,-0.0006492351531051099,-0.01717798225581646,0.004374454729259014
3779934167,-0.325594335794449,-9.71594619750977,-0.479650676250458,-0.0001523945393273607,-0.017594559118151665,0.00525314174592495
3800651550,-0.321938902139664,-9.71427917480469,-0.471470683813095,0.000983735197223723,-0.017469951882958412,0.007317651528865099
3998743057,-0.328914076089859,-9.70751476287842,-0.476952910423279,-0.003672865219414234,-0.016151897609233856,0.0023348943796008825
4008963823,-0.32844665646553,-9.71291542053223,-0.474031269550323,-0.0016646304866299033,-0.016305631026625633,0.002365510445088148
4018703222,-0.340137541294098,-9.70617961883545,-0.467202067375183,0.0006758266245014966,-0.015745941549539566,0.002444783691316843
4051421403,-0.324538201093674,-9.70921039581299,-0.473674386739731,0.0017937413649633527,-0.012162609957158566,0.0036568993236869574
4229021072,-0.326794862747192,-9.71360397338867,-0.464856624603271,-0.001205166568979621,-0.015387913212180138,0.0017926368163898587
4248106718,-0.325422495603561,-9.71190071105957,-0.476040840148926,-0.0014834959292784333,-0.01478421501815319,-8.346320828422904e-05
4250264644,-0.331585228443146,-9.71527862548828,-0.477269053459167,-0.0009787859162315726,-0.014141025021672249,-0.0005383715033531189
4259645223,-0.330399334430695,-9.71326732635498,-0.466781675815582,7.458483196387533e-06,-0.013796547427773476,0.0003743148408830166
4268978118,-0.330428808927536,-9.72305393218994,-0.461850643157959,0.0009257087949663401,-0.013958316296339035,0.0021236706525087357
4278722763,-0.329716145992279,-9.71360015869141,-0.471752613782883,0.0013287027832120657,-0.014715516939759254,0.004301908425986767
4349970817,-0.330518364906311,-9.70009231567383,-0.469283580780029,0.004045674577355385,-0.02038157358765602,0.006705892737954855
4364829063,-0.325488567352295,-9.71392440795898,-0.482611864805222,0.004851134493947029,-0.019442202523350716,0.006421619560569525
4372773170,-0.322022289037705,-9.71392822265625,-0.477969974279404,0.004627665504813194,-0.017307152971625328,0.006281157489866018
4388440608,-0.32118147611618,-9.71190166473389,-0.474258184432983,0.003757912665605545,-0.014619949273765087,0.005773245356976986
4415170907,-0.33318904042244,-9.70954704284668,-0.480528265237808,0.003263357561081648,-0.012104194611310959,0.0021789397578686476
4419960498,-0.338603556156158,-9.70312690734863,-0.477241635322571,0.003771609626710415,-0.013433093205094337,0.0013730272185057402
4431455135,-0.328648030757904,-9.70651245117188,-0.472876250743866,0.003651499981060624,-0.014558805152773857,0.000894217926543206
4439287900,-0.3265340924263,-9.70617866516113,-0.470321208238602,0.002535260748118162,-0.01467153150588274,0.0007295799441635609
4460977077,-0.329707026481628,-9.71730518341065,-0.476928383111954,-0.0007612908957526088,-0.012150036171078682,0.0019942824728786945
4640454292,-0.341251313686371,-9.70550918579102,-0.469067215919495,0.0021948551293462515,-0.01680472306907177,0.002724908059462905
4680265903,-0.322342246770859,-9.71932983398438,-0.471076279878616,-0.001015649177134037,-0.011282647959887981,0.004101733211427927
4690593004,-0.333258658647537,-9.71663475036621,-0.472260683774948,-0.000784809875767678,-0.011776313185691833,0.0041300272569060326
4698943614,-0.326555132865906,-9.70784187316895,-0.482718586921692,-0.00040866114431992173,-0.013418199494481087,0.004133075010031462
4709275245,-0.326298832893372,-9.7193431854248,-0.461004346609116,-2.9964587156428024e-05,-0.015526185743510723,0.00413973443210125
4719394683,-0.330187559127808,-9.71933269500733,-0.47388431429863,0.0003152984718326479,-0.017329247668385506,0.004185984842479229
4728449106,-0.326825588941574,-9.71088218688965,-0.483970254659653,0.0006358527461998165,-0.018472179770469666,0.00440188916400075
4898434638,-0.328714579343796,-9.70752048492432,-0.472188472747803,0.0004429185064509511,-0.018912754952907562,0.010084708221256733
4929379224,-0.327742010354996,-9.70784378051758,-0.479896634817123,-0.0008991397335194051,-0.015545469708740711,0.007155177183449268
4939356327,-0.328365743160248,-9.72336673736572,-0.48180079460144,-2.220089481852483e-05,-0.01327639352530241,0.0053183711133897305
4951599359,-0.333851605653763,-9.71089553833008,-0.477865427732468,0.0009629278210923076,-0.012151543982326984,0.0035011237487196922
4981475353,-0.327698141336441,-9.72540664672852,-0.472642332315445,0.00044012413127347827,-0.015606217086315155,0.0007166418945416808
5029571533,-0.332080096006393,-9.71595668792725,-0.477927684783936,-0.002099195960909128,-0.019804438576102257,0.00810648500919342
5039411783,-0.332029581069946,-9.71360397338867,-0.471735000610352,-0.002429585438221693,-0.019576624035835266,0.006725206971168518
5078583002,-0.329610079526901,-9.71188259124756,-0.486518174409866,-0.0036220361944288015,-0.01759870909154415,0.0027338596992194653
5249274015,-0.335181921720505,-9.71663475036621,-0.469671249389648,-0.001372121856547892,-0.014608928933739662,0.005275059025734663
5259235620,-0.31947273015976,-9.70986747741699,-0.48163178563118,0.0003856330004055053,-0.014373318292200565,0.005519262980669737
5268727064,-0.317408084869385,-9.70920467376709,-0.473946571350098,0.002412336179986596,-0.014035170897841454,0.005313901696354151
5280175447,-0.328891813755035,-9.72809982299805,-0.475972324609757,0.00418398343026638,-0.01379399374127388,0.004702962003648281
5289771556,-0.326808929443359,-9.70987796783447,-0.472592145204544,0.005508891306817532,-0.01393204927444458,0.0038307097274810076
5318942546,-0.326631873846054,-9.71597003936768,-0.465198278427124,0.0049802279099822044,-0.01667443849146366,0.0037154725287109613
5490481138,-0.330497264862061,-9.71696376800537,-0.475987106561661,-0.001151745906099677,-0.013920951634645462,0.00381536316126585
5506929636,-0.33644637465477,-9.71225357055664,-0.470035016536713,-0.0006123859784565866,-0.014993562363088131,0.003984159789979458
5559669733,-0.325190871953964,-9.70685958862305,-0.467311918735504,0.0017578481929376721,-0.012861129827797413,0.005334528628736734
5570040702,-0.324685305356979,-9.70684242248535,-0.474612772464752,0.0029688060749322176,-0.011263756081461906,0.004934754688292742
5579939603,-0.329201281070709,-9.71359729766846,-0.467900007963181,0.003934750333428383,-0.009975980967283249,0.0049612089060246944
5588554859,-0.326692909002304,-9.71696853637695,-0.474172741174698,0.004398728720843792,-0.009316192008554935,0.005431462544947863
5678334236,-0.322603851556778,-9.71157455444336,-0.465603649616241,0.0017018488142639399,-0.02008250169456005,0.003235221840441227
5719092607,-0.329999715089798,-9.71596813201904,-0.466887563467026,0.003909421619027853,-0.012369196861982346,0.005139300134032965
5749553918,-0.335119932889938,-9.7196798324585,-0.467882961034775,0.0011190064251422882,-0.012676085345447063,0.007640714291483164
5778433561,-0.334791332483292,-9.71458721160889,-0.483047485351562,-0.0031647554133087397,-0.014148765243589878,0.00822200533002615
5791829109,-0.31298553943634,-9.70988178253174,-0.472291797399521,-0.003474550088867545,-0.014383365400135517,0.007444425020366907
5809102535,-0.321778535842896,-9.71190357208252,-0.473044723272324,-0.0027029162738472223,-0.014482546597719193,0.005999427754431963
5813673019,-0.332792371511459,-9.71966648101807,-0.47372967004776,-0.0008276411681436002,-0.014489489607512951,0.00428901007398963
5839446306,-0.331288725137711,-9.71089267730713,-0.472677081823349,0.005241468083113432,-0.015376423485577106,0.0031030522659420967
5898573160,-0.330636382102966,-9.71222496032715,-0.482737839221954,0.002578021725639701,-0.01271059364080429,0.006039928644895554
5980056285,-0.325326859951019,-9.71157455444336,-0.469949334859848,-0.0010663507273420691,-0.0173967182636261,0.00599680608138442
5988409996,-0.337756901979446,-9.71664905548096,-0.46314662694931,-0.002334226854145527,-0.017364170402288437,0.007251606788486242
5999039411,-0.32418492436409,-9.71697616577148,-0.475861489772797,-0.003092339728027582,-0.017315657809376717,0.00831820908933878
6009891986,-0.323821783065796,-9.71425914764404,-0.477654904127121,-0.0031469492241740227,-0.017382871359586716,0.008982096798717976
6069149971,-0.325985163450241,-9.71392917633057,-0.4738909304142,0.001978477695956826,-0.01925942488014698,0.006080499850213528
6309611558,-0.325844407081604,-9.71326541900635,-0.4701207280159,0.0020677531138062477,-0.010755990631878376,0.0061717163771390915
6319842100,-0.323845624923706,-9.71224117279053,-0.472799360752106,-0.0005277061136439443,-0.01041895616799593,0.006071390584111214
6328837394,-0.332230776548386,-9.72102451324463,-0.46923765540123,-0.0017470917664468288,-0.010141880251467228,0.005579442251473665
6338756322,-0.32330858707428,-9.7024507522583,-0.476363360881805,-0.001449535833671689,-0.010380316525697708,0.005071748048067093
6464772939,-0.31800189614296,-9.70817375183105,-0.483782738447189,-0.0005118512199260294,-0.01357270684093237,0.00703975185751915
6473875999,-0.333689749240875,-9.70616912841797,-0.472509384155273,-0.0009789859177544713,-0.015621339902281761,0.006478763651102781
6479804277,-0.32527306675911,-9.71664142608643,-0.464493215084076,-0.001333313761278987,-0.017625389620661736,0.005402935203164816
6528848409,-0.326443493366241,-9.71325492858887,-0.472953498363495,5.876983777852729e-05,-0.01685943268239498,0.007340901996940374
6749143123,-0.330045282840729,-9.70987987518311,-0.475345492362976,0.0006183044170029461,-0.014858930371701717,0.0024040578864514828
6768455028,-0.330506533384323,-9.71999931335449,-0.472389250993729,0.0024520154111087322,-0.015206092037260532,0.00200680666603148
6789641618,-0.328318953514099,-9.71730613708496,-0.471911907196045,0.002245576586574316,-0.01581178419291973,0.00208273995667696
6801486015,-0.333421140909195,-9.71020889282227,-0.475939273834229,0.0019126491388306022,-0.016561470925807953,0.00217700214125216
6809197664,-0.33570984005928,-9.71595001220703,-0.477198362350464,0.00154466915410012,-0.017284169793128967,0.002386796288192272
6819779157,-0.321163177490234,-9.70515441894531,-0.480620473623276,0.0009635507594794035,-0.01763295941054821,0.0026126489974558353
6849213600,-0.322560101747513,-9.71865844726562,-0.469590723514557,-0.0006330180331133306,-0.015143142081797123,0.0014086359879001975
6908903598,-0.333043128252029,-9.7142915725708,-0.465347290039062,0.0037727023009210825,-0.014546835795044899,0.005773399490863085
6928688526,-0.331524342298508,-9.71697998046875,-0.469368189573288,0.00199625501409173,-0.014761221595108509,0.007093402557075024
6938769102,-0.324191302061081,-9.70785045623779,-0.472952902317047,0.0006129624671302736,-0.014559906907379627,0.007472905796021223
6948992252,-0.329660713672638,-9.7172794342041,-0.485210627317429,-0.0005728527321480215,-0.01435298565775156,0.007614842150360346
6959418296,-0.325768262147903,-9.71459674835205,-0.479463249444962,-0.001157536287792027,-0.014290026389062405,0.007196354679763317
6969437122,-0.324067324399948,-9.70953369140625,-0.476116299629211,-0.0009861979633569717,-0.014474478550255299,0.005892730318009853
6980867624,-0.329187273979187,-9.71224117279053,-0.468305647373199,-0.00016806974599603564,-0.014852332882583141,0.0038655304815620184
7049900293,-0.333816736936569,-9.71291923522949,-0.473556399345398,-0.00012494853581301868,-0.014750136993825436,0.0047316160053014755
7062282800,-0.324708372354508,-9.70954704284668,-0.472942054271698,-0.0011065135477110744,-0.016317036002874374,0.004710371606051922
7069072008,-0.321288675069809,-9.71596240997315,-0.463263034820557,-0.0016003723721951246,-0.017714105546474457,0.004155286122113466
7079397916,-0.337873905897141,-9.71594905853272,-0.477438420057297,-0.0014282187912613153,-0.018381629139184952,0.00369856134057045
7089119911,-0.328587919473648,-9.71257781982422,-0.476557701826096,-0.0007000326295383275,-0.018263058736920357,0.003791281720623374
7098953008,-0.316931456327438,-9.7078447341919,-0.480417639017105,0.00015540757158305496,-0.017636558040976524,0.004264186602085829
7138460397,-0.337234944105148,-9.70784759521484,-0.481740206480026,0.003532171482220292,-0.0133936433121562,0.0029044286347925663
7149886369,-0.328714072704315,-9.71393394470215,-0.472569137811661,0.003380467416718602,-0.012073475867509842,0.0025396528653800488
7158762216,-0.32807183265686,-9.72202682495117,-0.475073039531708,0.002161807846277952,-0.011039071716368198,0.002391380025073886
7320304393,-0.344700932502747,-9.71358776092529,-0.474675506353378,-0.0005916397785767913,-0.019421309232711792,0.004142940975725651
7499795436,-0.351714193820953,-9.70517921447754,-0.46851122379303,-0.01535721030086279,-0.01647995226085186,0.006224766839295626
7520558357,-0.345934599637985,-9.71326351165772,-0.477041721343994,-0.01688724383711815,-0.016576629132032394,0.009549441747367382
7532155036,-0.348041146993637,-9.71529483795166,-0.468747824430466,-0.017699560150504112,-0.015397371724247932,0.009397117421030998
7559101104,-0.351664304733276,-9.71157550811768,-0.472787439823151,-0.01993715763092041,-0.011971416883170605,0.004946025554090738
7569193840,-0.345354020595551,-9.72204780578613,-0.467478722333908,-0.02050011418759823,-0.012216431088745594,0.004223215393722057
7598547220,-0.34722974896431,-9.71394920349121,-0.470620721578598,-0.020751945674419403,-0.016068974509835243,0.005053285509347916
7630521059,-0.33966052532196,-9.71834468841553,-0.462407141923904,-0.019242800772190094,-0.01718144118785858,0.006183056626468897
7658593416,-0.353267312049866,-9.71395683288574,-0.467242985963821,-0.018084492534399033,-0.013600153848528862,0.009560560807585716
7678576231,-0.361256301403046,-9.71498203277588,-0.463831692934036,-0.01954781264066696,-0.013917064294219017,0.009536349214613438
7689720630,-0.345148712396622,-9.7041654586792,-0.469650000333786,-0.020548895001411438,-0.014820391312241554,0.009024473838508129
7728682279,-0.343926608562469,-9.7109203338623,-0.470298051834106,-0.0203799270093441,-0.015427649021148682,0.008739231154322624
7738881349,-0.345490783452988,-9.7126054763794,-0.469005465507507,-0.018911728635430336,-0.014940410852432251,0.008328353054821491
7748470067,-0.355642229318619,-9.70687389373779,-0.471437066793442,-0.017472388222813606,-0.014466159977018833,0.007742858491837978
7759210348,-0.351543128490448,-9.72441101074219,-0.46545946598053,-0.016565421596169472,-0.014065809547901154,0.0072517599910497665
7770022392,-0.347202748060226,-9.70687866210938,-0.46527162194252,-0.016621150076389313,-0.01389564573764801,0.007114536128938198
7800625801,-0.356361299753189,-9.70754432678223,-0.467581242322922,-0.020175445824861526,-0.014363935217261314,0.008769596926867962
8029193639,-0.361366659402847,-9.71124172210694,-0.469198405742645,-0.019315317273139954,-0.016435571014881134,0.007118692621588707
8045137405,-0.350134134292603,-9.71698665618897,-0.468031495809555,-0.019034190103411674,-0.01628211699426174,0.0071557960473001
8049770593,-0.349840074777603,-9.71394443511963,-0.469089806079865,-0.019354503601789474,-0.015564755536615849,0.007075895089656115
8063964843,-0.346022039651871,-9.71630477905273,-0.46939218044281,-0.02025686576962471,-0.01483131293207407,0.007057951297610998
8078607797,-0.347658723592758,-9.71057224273682,-0.465666234493256,-0.021542130038142204,-0.015023728832602501,0.007553552743047476
8122987508,-0.344083100557327,-9.71191787719727,-0.469413220882416,-0.018165448680520058,-0.016972728073596954,0.00863141193985939
8298980236,-0.345257163047791,-9.71293926239014,-0.458965629339218,-0.014614308252930641,-0.011419424787163734,0.010053997859358788
8308799266,-0.336984485387802,-9.71495628356934,-0.463453859090805,-0.013053986243903637,-0.012682604603469372,0.010924209840595722
8319246768,-0.342198044061661,-9.72574806213379,-0.471524387598038,-0.011888754554092884,-0.01422977540642023,0.011965400539338589
8330537796,-0.341873615980148,-9.70684432983398,-0.469486981630325,-0.011182454414665699,-0.015923388302326202,0.013041377998888493
8338920354,-0.348024725914001,-9.71088886260987,-0.470729678869247,-0.010959488339722157,-0.017495812848210335,0.013608819805085659
8478933811,-0.334955245256424,-9.70786380767822,-0.469842374324799,-0.0028100768104195595,-0.013895906507968903,0.007571222726255655
8522326707,-0.317368060350418,-9.70784568786621,-0.472011238336563,-0.004972481168806553,-0.012131531722843647,0.005673211999237537
8531345605,-0.329716682434082,-9.71932888031006,-0.469571948051453,-0.002691912231966853,-0.012890426442027092,0.006401245482265949
8592940092,-0.337484359741211,-9.71932411193848,-0.472583115100861,0.004746099468320608,-0.01688021793961525,0.007559771649539471
8600468397,-0.326308876276016,-9.71190166473389,-0.471557438373566,0.0025892630219459534,-0.01752486079931259,0.0069071948528289795
8615377664,-0.327950865030289,-9.71122264862061,-0.471425473690033,-0.0020861802622675896,-0.01800200343132019,0.005239798221737146
8668673753,-0.3349769115448,-9.70651245117188,-0.469107776880264,0.003357497975230217,-0.014637676998972893,0.0035987806040793657
8678897142,-0.317111134529114,-9.70987606048584,-0.47428971529007,0.005188836716115475,-0.013887831009924412,0.005411598365753889
8689703464,-0.31376251578331,-9.70987129211426,-0.476731210947037,0.0064401086419820786,-0.013009129092097282,0.007186222355812788
8700451612,-0.327268183231354,-9.71527576446533,-0.472722351551056,0.007157247979193926,-0.012168058194220066,0.008230953477323055
8708583116,-0.324824959039688,-9.71695518493652,-0.48248165845871,0.007606390863656998,-0.01169351115822792,0.008137154392898083
8739387035,-0.323483407497406,-9.72303295135498,-0.475694417953491,0.007821750827133656,-0.01423618569970131,0.0022510087583214045
8778842687,-0.323445826768875,-9.70785713195801,-0.471625566482544,0.009694558568298817,-0.016308579593896866,0.00035701607703231275
8808482408,-0.320344239473343,-9.70955085754395,-0.468893617391586,0.009925096295773983,-0.01661163568496704,0.006244979798793793
8819538116,-0.316676139831543,-9.72000598907471,-0.470002084970474,0.009551053866744041,-0.01738329604268074,0.007175577338784933
8829979658,-0.317146122455597,-9.70615768432617,-0.474322259426117,0.009075178764760494,-0.018235478550195694,0.007412982638925314
8852672338,-0.307339459657669,-9.71798515319824,-0.466684520244598,0.009398482739925385,-0.018333297222852707,0.0069045815616846085
8889814615,-0.309834241867065,-9.70852661132812,-0.476734161376953,0.014509810134768486,-0.015004673041403294,0.006337225902825594
9058649301,-0.304460048675537,-9.70784759521484,-0.466195017099381,0.021835219115018845,-0.01603432558476925,-0.00040391209768131375
9069972276,-0.308060497045517,-9.72843360900879,-0.474845051765442,0.022297611460089684,-0.01537898276001215,0.0003659998474176973
9079019069,-0.313869535923004,-9.72033786773682,-0.469103366136551,0.022215258330106735,-0.015050364658236504,0.0015459557762369514
9098820209,-0.313641220331192,-9.71256446838379,-0.478473395109177,0.02083655633032322,-0.016829751431941986,0.004730982705950737
9131148815,-0.312142342329025,-9.71426391601562,-0.474013209342957,0.018175067380070686,-0.019993821159005165,0.0069611468352377415
9309377431,-0.301984935998917,-9.70852565765381,-0.470141559839249,0.020755302160978317,-0.016758674755692482,0.0035311926621943712
9319721937,-0.312257677316666,-9.71122360229492,-0.474381923675537,0.020039109513163567,-0.01379761565476656,0.0040793647058308125
9328880310,-0.317963898181915,-9.7102165222168,-0.477250993251801,0.019613299518823624,-0.010741382837295532,0.004280270077288151
9449050664,-0.308137029409409,-9.7166166305542,-0.478549540042877,0.022490058094263077,-0.01812775433063507,0.003454535501077771
9495237588,-0.308731585741043,-9.7115592956543,-0.473255187273026,0.01589549332857132,-0.017514070495963097,0.003762438427656889
9508416414,-0.313193947076798,-9.71663188934326,-0.4732965528965,0.016650628298521042,-0.015474657528102398,0.0024273188319057226
9517687082,-0.309420764446259,-9.71762943267822,-0.475570380687714,0.01792966201901436,-0.013969244435429573,0.0014811421278864145
9527847051,-0.310384273529053,-9.71628570556641,-0.472427994012833,0.019135732203722,-0.013501068577170372,0.0012081171153113246
9541471481,-0.315493404865265,-9.72237396240234,-0.468593746423721,0.019840577617287636,-0.014189912006258965,0.0016252989880740643
9548571586,-0.30628889799118,-9.70446586608887,-0.482756584882736,0.019896553829312325,-0.015735844150185585,0.002550413366407156
9564079046,-0.312481671571732,-9.70853137969971,-0.471948355436325,0.01942998729646206,-0.01742243394255638,0.003605967853218317
9579766273,-0.307877838611603,-9.70851039886475,-0.480258405208588,0.018531013280153275,-0.017921047285199165,0.004212064202874899
9750111818,-0.318057030439377,-9.70278835296631,-0.476648241281509,0.013225981965661049,-0.014389002695679665,0.006706888787448406
9759657144,-0.310253202915192,-9.72439193725586,-0.473071545362473,0.013169718906283379,-0.015084919519722462,0.0062897661700844765
9898101806,-0.321002244949341,-9.70987224578858,-0.478715389966965,0.01345314271748066,-0.01565045304596424,0.0020390679128468037
9909507036,-0.318351417779923,-9.70922565460205,-0.4674953520298,0.01291941199451685,-0.016214819625020027,0.0021711760200560093
9992627143,-0.324373543262482,-9.71122074127197,-0.477750778198242,0.011872697621583939,-0.014623832888901234,0.0030345867853611708
9998417615,-0.317520529031754,-9.71696472167969,-0.474368840456009,0.010323423892259598,-0.012870130129158497,0.0030791948083788157
10013210296,-0.324783533811569,-9.70819473266602,-0.473014324903488,0.008601013571023941,-0.011417890898883343,0.003313505556434393
10018634319,-0.308741688728333,-9.72168254852295,-0.474266290664673,0.007248278241604567,-0.01087096706032753,0.003577976254746318
10058113098,-0.312934756278992,-9.7129077911377,-0.481154769659042,0.010907082818448544,-0.01797625795006752,0.0029657436534762383
10118413686,-0.313334435224533,-9.71899032592773,-0.473384469747543,0.013254888355731964,-0.013735403306782246,0.001715937745757401
10288728952,-0.312874495983124,-9.71290493011475,-0.479485929012299,0.012948793359100819,-0.012735799886286259,0.00010912871948676184
10298844814,-0.313834756612778,-9.71494007110596,-0.470700263977051,0.012106603011488914,-0.014202901162207127,0.0010009323013946414
10328588247,-0.318764805793762,-9.71864795684815,-0.475681155920029,0.012016469612717628,-0.01692570187151432,0.004264471121132374
10528573989,-0.320643067359924,-9.71157360076904,-0.468217104673386,0.008283574134111404,-0.015508229844272137,-0.0002031255717156455
10538466930,-0.327133536338806,-9.72067070007324,-0.472764074802399,0.009122854098677635,-0.015869425609707832,0.00029315019492059946
10555694818,-0.308996468782425,-9.7152681350708,-0.481539726257324,0.009649337269365788,-0.016436198726296425,0.00183252920396626
10574415922,-0.321213692426682,-9.71662139892578,-0.480441093444824,0.009465825743973255,-0.01743735559284687,0.0049474299885332584
10584585428,-0.318205505609512,-9.70347690582276,-0.469863682985306,0.009110313840210438,-0.017294220626354218,0.00507016945630312
10590063095,-0.334816157817841,-9.71427440643311,-0.472922295331955,0.008654249832034111,-0.01649138517677784,0.004262552596628666
10608573913,-0.326057285070419,-9.71190166473389,-0.48261484503746,0.00702871847897768,-0.01411171443760395,0.002558780135586858
10618438482,-0.318115055561066,-9.70921802520752,-0.468411952257156,0.0058602201752364635,-0.013620421290397644,0.002420197008177638
10758439064,-0.325539201498032,-9.72303867340088,-0.47727358341217,0.00032583295251242816,-0.017162278294563293,0.0033487267792224884
10938535451,-0.321142017841339,-9.70852851867676,-0.474400639533997,0.0031612329185009003,-0.015307378955185413,0.003476441605016589
10948531627,-0.326667785644531,-9.70785617828369,-0.47267684340477,0.004623346496373415,-0.014092904515564442,0.004464701283723116
10959623813,-0.317920804023743,-9.71798419952393,-0.472877442836761,0.005528497043997049,-0.01252709235996008,0.005630189552903175
11000998020,-0.324180483818054,-9.70853233337402,-0.470690160989761,0.006096429657191038,-0.013313168659806252,0.006974704563617706
11008075475,-0.332962810993195,-9.71394157409668,-0.470569670200348,0.005713716149330139,-0.015056392177939415,0.007336019072681665
11130076408,-0.316481560468674,-9.70683288574219,-0.475383788347244,0.0016624449053779244,-0.015228960663080215,0.004422773607075214
11138138294,-0.324886590242386,-9.7108964920044,-0.470594167709351,0.001448372146114707,-0.01314444001764059,0.005067931953817606
11151763439,-0.328485161066055,-9.7068567276001,-0.472067445516586,0.0013288612244650722,-0.011541562154889107,0.00573344249278307
11159139871,-0.327418833971024,-9.71460151672363,-0.474992573261261,0.001524258404970169,-0.010675664991140366,0.006206619553267956
11169945001,-0.328620344400406,-9.7149486541748,-0.475635886192322,0.0019507972756400704,-0.010569660924375057,0.006350583862513304
11182835578,-0.339049428701401,-9.72066783905029,-0.47973570227623,0.0022707832977175713,-0.011222376488149166,0.006055597681552172
11221095561,-0.3219955265522,-9.70245265960694,-0.480265825986862,-0.0019936878234148026,-0.01715172827243805,0.0006491861422546208
11389282941,-0.328315317630768,-9.70044612884522,-0.469986498355865,-0.0010504606179893017,-0.021601395681500435,0.007710214238613844
11398835659,-0.333429872989655,-9.71155834197998,-0.481321066617966,0.0012888608034700155,-0.02071668580174446,0.006676021032035351
11458611488,-0.325111448764801,-9.71495056152344,-0.473964035511017,-0.0034508798271417618,-0.010710127651691437,0.003710896708071232
11468741416,-0.322996973991394,-9.70785808563233,-0.478537946939468,-0.0034996767062693834,-0.012013751082122326,0.004085770808160305
11490813970,-0.33285054564476,-9.71359157562256,-0.4732506275177,-0.00041863860678859055,-0.0154762277379632,0.0034631947055459023
11526717901,-0.329722911119461,-9.71324920654297,-0.479393184185028,0.003914584871381521,-0.016555020585656166,0.003835532581433654
11534477949,-0.332513034343719,-9.7213659286499,-0.467517405748367,0.003810716327279806,-0.015712454915046692,0.00490932771936059
11539030075,-0.333496421575546,-9.70683670043945,-0.48102793097496,0.0029444489628076553,-0.014769008383154869,0.00584117928519845
11550010919,-0.327765613794327,-9.70144462585449,-0.467718988656998,0.0015005262102931738,-0.01414542831480503,0.0062467800453305244
11719198226,-0.335151463747025,-9.71799755096436,-0.465178817510605,0.0008145688334479928,-0.018326181918382645,0.006867100950330496
11730496406,-0.326041221618652,-9.72001075744629,-0.471580177545548,7.382693729596213e-05,-0.018230052664875984,0.005119785200804472
11758351087,-0.326643884181976,-9.71967697143555,-0.465955525636673,-0.0005254628486000001,-0.017720652744174004,0.003848857246339321
11820522308,-0.346302092075348,-9.7119083404541,-0.471450716257095,0.004655220080167055,-0.013710240833461285,0.0029865901451557875
11833564996,-0.327927082777023,-9.71796989440918,-0.475704669952393,0.005499671678990126,-0.012410616502165794,0.0007831756956875324
11840014696,-0.325264722108841,-9.72304058074951,-0.473818838596344,0.0052857426926493645,-0.011962158605456352,-0.0003841011493932456
11848322629,-0.327306807041168,-9.7183256149292,-0.465027898550034,0.003968070726841688,-0.012699669227004051,-0.00018096865096595138
11858272314,-0.334761202335358,-9.71563339233398,-0.463168263435364,0.002160461852326989,-0.014607560820877552,0.0012432629009708762
12040422201,-0.314414620399475,-9.70785617828369,-0.4723159968853,0.0058239479549229145,-0.015101328492164612,0.004044170491397381
12049488782,-0.323692530393601,-9.71596145629883,-0.472154289484024,0.005546552129089832,-0.013327582739293575,0.002703597769141197
12059895992,-0.329771906137466,-9.70717334747315,-0.481053054332733,0.004976493772119284,-0.012068009935319424,0.0022541361395269632
12069105386,-0.327760875225067,-9.71358013153076,-0.480414837598801,0.004585424903780222,-0.01149457972496748,0.0024657314643263817
12188606023,-0.328296273946762,-9.71189785003662,-0.477979481220245,0.0033354072365909815,-0.012199640274047852,0.003352227620780468
12231084108,-0.323267072439194,-9.71731567382812,-0.467945069074631,0.003691443707793951,-0.01738724857568741,0.006783420220017433
12248912811,-0.331591755151749,-9.71393299102783,-0.473862558603287,0.0022070431150496006,-0.018831586465239525,0.009423953481018543
12281729221,-0.327691256999969,-9.7233829498291,-0.46938419342041,0.0032649084459990263,-0.018323173746466637,0.010215246118605137
12294679880,-0.315817207098007,-9.71798133850098,-0.469379276037216,0.0036005754955112934,-0.018185902386903763,0.009666377678513527
12321421146,-0.327156990766525,-9.7176399230957,-0.468579411506653,0.004252842161804438,-0.01871296763420105,0.008506962098181248
12328040599,-0.328582584857941,-9.70952796936035,-0.475147783756256,0.0048598637804389,-0.01912422478199005,0.008181293494999409
12339528322,-0.314496695995331,-9.71426105499268,-0.479453861713409,0.005369341932237148,-0.0192200168967247,0.007950793020427227
12349558353,-0.325978368520737,-9.71359062194824,-0.473032146692276,0.005624675657600164,-0.018792085349559784,0.0074873981066048145
12363040447,-0.339676946401596,-9.71698951721191,-0.467285871505737,0.005686300806701183,-0.01791800558567047,0.0065820044837892056
12368112564,-0.318485349416733,-9.70988082885742,-0.470756143331528,0.0054355524480342865,-0.0169251449406147,0.005492120981216431
12378627777,-0.330180585384369,-9.71799087524414,-0.470157623291016,0.00467501487582922,-0.016136111691594124,0.004764564335346222
12633368253,-0.315997719764709,-9.70684242248535,-0.472172409296036,0.009402796626091003,-0.01625004969537258,0.008068395778536797
12640731096,-0.322763562202454,-9.71729946136475,-0.475314825773239,0.011115391738712788,-0.016347944736480713,0.007757687941193581
12652342796,-0.314898639917374,-9.70818996429444,-0.467785209417343,0.01217487920075655,-0.0159725584089756,0.007056883070617914
12884101390,-0.326796591281891,-9.71122646331787,-0.47720941901207,0.008323603309690952,-0.01572180539369583,0.0036627701483666897
12908915281,-0.323495537042618,-9.71628475189209,-0.470999538898468,0.01031596027314663,-0.018994733691215515,0.003242953447625041
12948487043,-0.324998110532761,-9.71460151672363,-0.473330914974213,0.007276247255504131,-0.016406698152422905,0.007737487554550171
12978804588,-0.313187718391418,-9.72303771972656,-0.474160969257355,0.00455488683655858,-0.01673423871397972,0.00640005012974143
13150942087,-0.322693973779678,-9.7068452835083,-0.47325798869133,0.004875571932643652,-0.017444202676415443,0.0055305506102740765
13209915399,-0.323267966508865,-9.70651149749756,-0.4715815782547,0.009895565919578075,-0.011433668434619904,0.006208457518368959
13249635934,-0.330519020557404,-9.70921611785889,-0.472022026777268,0.008253512904047966,-0.015192423947155476,0.0031113808508962393
13302239418,-0.332099199295044,-9.71593570709229,-0.481377959251404,0.0011124914744868875,-0.013883761130273342,0.007715561892837286
13308834552,-0.327133983373642,-9.70820236206055,-0.466467380523682,-0.0006832163780927658,-0.014631242491304874,0.00931575708091259
13319269418,-0.334431231021881,-9.71089458465576,-0.470291495323181,-0.002509667072445154,-0.015356318093836308,0.010091237723827362
13329330205,-0.334624767303467,-9.71562385559082,-0.476590812206268,-0.0038705701008439064,-0.015713756904006004,0.009837956167757511
13429488897,-0.318511098623276,-9.70988464355469,-0.472253203392029,0.00778622180223465,-0.014807491563260555,0.007896995171904564
13439188003,-0.324477314949036,-9.71056175231934,-0.467918157577515,0.00720402505248785,-0.014434895478188992,0.008571292273700237
13450017213,-0.329380929470062,-9.70550441741944,-0.469455718994141,0.006107869558036327,-0.013587339781224728,0.008504148572683334
13459165573,-0.325658619403839,-9.7038106918335,-0.470233649015427,0.0049295262433588505,-0.01246925350278616,0.008067574352025986
13508948326,-0.315143316984177,-9.70921325683594,-0.47217133641243,0.0023201564326882362,-0.010194074362516403,0.0076859984546899796
13538356304,-0.321453213691711,-9.72135353088379,-0.472992986440659,0.005050357431173325,-0.013068199157714844,0.0073770927265286446
13548863410,-0.31779283285141,-9.71360397338867,-0.466205775737762,0.007377603556960821,-0.014005781151354313,0.006900970824062824
13559619426,-0.322574734687805,-9.72033023834229,-0.476319253444672,0.009757287800312042,-0.01506960391998291,0.006591359619051218
13568876743,-0.333536416292191,-9.71225070953369,-0.47179725766182,0.011422816663980484,-0.016318555921316147,0.0065299514681100845
13583130598,-0.321921139955521,-9.70415306091309,-0.468399852514267,0.01171906292438507,-0.017504887655377388,0.006580892018973827
13591753005,-0.323179602622986,-9.71562671661377,-0.471170246601105,0.010466857813298702,-0.018129779025912285,0.006627044640481472
13600188255,-0.318916797637939,-9.71561527252197,-0.479402810335159,0.008222797885537148,-0.017846692353487015,0.006655412260442972
13941009998,-0.31926816701889,-9.7136058807373,-0.468430817127228,0.007041133474558592,-0.016494303941726685,0.007961355149745941
13950505495,-0.322636604309082,-9.71528911590576,-0.470196396112442,0.008078268729150295,-0.01587289571762085,0.008539528585970402
13958612203,-0.3257836997509,-9.70921039581299,-0.46827620267868,0.00861228909343481,-0.015165789984166622,0.008987091481685638
13968990087,-0.323263168334961,-9.71697902679444,-0.464808881282806,0.00863723549991846,-0.014652226120233536,0.009305506013333797
13979357957,-0.31997674703598,-9.71088981628418,-0.475678741931915,0.008165853098034859,-0.014458130113780499,0.009510116651654243
13999259471,-0.322512626647949,-9.71999168395996,-0.473145216703415,0.006312931887805462,-0.014783789403736591,0.009525515139102936
14300214767,-0.326584428548813,-9.70550632476807,-0.465214610099792,0.00798246543854475,-0.013982960022985935,0.006779886782169342
14318883419,-0.319127112627029,-9.72439765930176,-0.469334930181503,0.008218033239245415,-0.014171370305120945,0.008241869509220123
14338747978,-0.325646847486496,-9.71360874176026,-0.467103064060211,0.007458498701453209,-0.014924886636435986,0.00827424880117178
14424487113,-0.319212317466736,-9.71157550811768,-0.466500461101532,0.006674913689494133,-0.00980959739536047,0.005529739893972874
14475407838,-0.329062074422836,-9.71797370910645,-0.470835447311401,0.005105447489768267,-0.01695783995091915,0.005092427134513855
14519739389,-0.331460446119309,-9.71865844726562,-0.470628976821899,0.0007655439549125731,-0.0141493771225214,0.008912566117942333
14529242992,-0.33242392539978,-9.71125316619873,-0.470295906066895,-0.0009898454882204533,-0.014725425280630589,0.008194156922399998
14539427042,-0.328609704971313,-9.70987415313721,-0.475324183702469,-0.0025083411019295454,-0.015987453982234,0.0076049743220210075
14549302816,-0.326998442411423,-9.71156311035156,-0.473088622093201,-0.003455697325989604,-0.017202891409397125,0.007171222008764744
14579743146,-0.320024520158768,-9.71121788024902,-0.483725368976593,-0.0003439341962803155,-0.01635371334850788,0.006219608709216118
14816264629,-0.318591296672821,-9.70954608917237,-0.469878673553467,0.0010229602921754122,-0.0178475771099329,0.008842669427394867
14864386796,-0.325828850269318,-9.70953750610352,-0.472666680812836,0.001145911985076964,-0.014044005423784256,0.008818552829325199
14897342681,-0.323093205690384,-9.72337245941162,-0.471432358026505,0.002543679205700755,-0.012415860779583454,0.00862314086407423
14906115055,-0.326771289110184,-9.71528244018555,-0.471934020519257,0.004080225247889757,-0.011623569764196873,0.008356258273124695
14919080257,-0.328721106052399,-9.71291923522949,-0.477892249822617,0.005200169514864683,-0.012052003294229507,0.007930074818432331
14925130605,-0.330856502056122,-9.72000694274902,-0.475304663181305,0.005549466237425804,-0.013584409840404987,0.007237482815980911
15081021785,-0.314509809017181,-9.72336959838867,-0.479019522666931,0.00423041358590126,-0.013133103959262371,0.0033788676373660564
15129958629,-0.318691283464432,-9.71878051757812,-0.463884323835373,0.005953746382147074,-0.016820671036839485,0.004528232384473085
15139878988,-0.334417432546616,-9.72450828552246,-0.469053387641907,0.0052009751088917255,-0.01712247170507908,0.005790106952190399
15212516307,-0.322800248861313,-9.70426464080811,-0.465194463729858,0.005599929951131344,-0.017435643821954727,0.0019470707047730684
15225744962,-0.314062625169754,-9.70797348022461,-0.46851047873497,0.006192234810441732,-0.017514675855636597,0.0027168956585228443
15231939792,-0.320094048976898,-9.71135234832764,-0.468721985816956,0.0068000140599906445,-0.017448369413614273,0.004893061239272356
15239180803,-0.330472975969315,-9.71270370483398,-0.469459861516953,0.007530705537647009,-0.016753805801272392,0.0076382518745958805
15321389436,-0.332016289234161,-9.70157051086426,-0.468959182500839,0.000791300495620817,-0.013219563290476799,0.002312084659934044
15330675363,-0.325242012739182,-9.72011280059815,-0.474211663007736,3.908678627340123e-05,-0.013791054487228394,0.002819020301103592
15340186119,-0.320022284984589,-9.7018871307373,-0.478569149971008,5.3649568144464865e-05,-0.01431491319090128,0.004214537795633078
15350592613,-0.325459510087967,-9.70053672790527,-0.474294275045395,0.0007244566222652793,-0.014445437118411064,0.00562260439619422
16669179439,-0.306408286094666,-9.712646484375,-0.494166553020477,0.044387686997652054,0.001316727721132338,0.008309951983392239
16679237604,-0.328732967376709,-9.728835105896,-0.508781552314758,0.04336374253034592,0.0028038672171533108,0.004803682677447796
16688959598,-0.348953396081924,-9.74910259246826,-0.504206657409668,0.03792720288038254,0.00010281983850290999,-0.001267185783945024
17139381408,-0.394552797079086,-9.63360118865967,-0.577892482280731,-0.014512227848172188,-0.012320092879235744,-0.1149977445602417
17148996114,-0.393433600664139,-9.66768455505371,-0.578658521175385,-0.023682143539190292,-0.015018463134765625,-0.11941464990377426
17161190509,-0.397691935300827,-9.72537612915039,-0.582866072654724,-0.03568240627646446,-0.007055744994431734,-0.12054882198572159
17349099636,-0.314198136329651,-9.80169582366944,-0.49714869260788,0.00631523784250021,-0.011198260821402073,-0.05740804225206375
17598489999,-0.293192654848099,-9.69199848175049,-0.573311507701874,0.06175319850444794,-0.04297123849391937,-0.01844523847103119
17901203870,-0.400778889656067,-9.64309310913086,-0.521135628223419,0.026761461049318314,0.050115715712308884,-0.03766344487667084
17909076452,-0.398287236690521,-9.64139461517334,-0.528468072414398,0.0019688191823661327,0.06255453079938889,-0.026987608522176743
17919135332,-0.410016357898712,-9.64578723907471,-0.52349591255188,-0.021957090124487877,0.06670267879962921,-0.02406490035355091
17931184291,-0.405799090862274,-9.66567993164062,-0.51886111497879,-0.04298833757638931,0.06421004980802536,-0.027624472975730896
18419256687,-0.311155289411545,-9.6343879699707,-0.52544504404068,-0.02090080827474594,-0.040826812386512756,-0.07655763626098633
18591984748,-0.299495726823807,-9.72655296325684,-0.486063867807388,-0.00919561367481947,-0.018019655719399452,-0.03729887306690216
18597959518,-0.305385172367096,-9.69145202636719,-0.476581931114197,-0.004823167808353901,-0.02602214366197586,-0.032211530953645706
18609098434,-0.314599096775055,-9.66208839416504,-0.480609655380249,0.0013256770325824618,-0.03765812888741493,-0.02597508765757084
18622286796,-0.333270698785782,-9.63949394226074,-0.475198179483414,0.00864223949611187,-0.04402590170502663,-0.018977046012878418
18974429607,-0.286388128995895,-9.66138935089112,-0.457672029733658,0.0043472060933709145,-0.03388475254178047,0.005762750282883644
18977825880,-0.300619184970856,-9.69309616088867,-0.459643304347992,0.0107509084045887,-0.027330627664923668,0.0058709485456347466
18988320350,-0.317234486341476,-9.71300411224365,-0.468433380126953,0.018975945189595222,-0.01256641186773777,0.008382721804082394
19001153469,-0.302047967910767,-9.74402141571045,-0.484457433223724,0.026713432744145393,0.0038625586312264204,0.01200378593057394
19009186744,-0.313825875520706,-9.73389053344727,-0.489296168088913,0.031609825789928436,0.014510054141283035,0.014705887995660305
19021371841,-0.321674525737762,-9.72783756256104,-0.4839246571064,0.03256732597947121,0.01485592033714056,0.014647828415036201
19028739213,-0.318062782287598,-9.71300315856934,-0.479432791471481,0.0298631489276886,0.005384855903685093,0.011239616200327873
19038121461,-0.33321288228035,-9.69479656219483,-0.472192317247391,0.024569526314735413,-0.009111020714044571,0.00557587668299675
19069567918,-0.324719965457916,-9.72616863250733,-0.489011973142624,0.004773138090968132,-0.028271319344639778,-0.0049551986157894135
19083843708,-0.34656035900116,-9.74775886535645,-0.493713855743408,-0.00039252027636393905,-0.022188037633895874,-0.003925747703760862
19170808076,-0.260374516248703,-9.73792934417725,-0.523590922355652,0.026135794818401337,-0.011302048340439796,-0.02343008853495121
20127489566,-0.258039802312851,-9.70589637756348,-0.451137691736221,-0.02856791578233242,-0.0263784509152174,-0.005681184586137533
20134346008,-0.236281618475914,-9.72781848907471,-0.457743138074875,-0.02144251950085163,-0.026637447997927666,-0.001383683062158525
20138074636,-0.24787874519825,-9.71196746826172,-0.45159837603569,-0.007521531078964472,-0.02780574932694435,0.0063298288732767105
20267954587,-0.362892985343933,-9.76441478729248,-0.42796066403389,0.007848911918699741,-0.08530955016613007,0.0038817692548036575
20278875827,-0.326342850923538,-9.73909854888916,-0.432758092880249,-0.0032729560043662786,-0.08208231627941132,0.02449140138924122
20607767820,-0.444577485322952,-9.66998481750488,-0.436195462942123,-0.008191347122192383,0.006985427346080542,-0.04431357607245445
20617943763,-0.385583221912384,-9.62474536895752,-0.426521390676498,-0.041049689054489136,0.0017901245737448335,-0.027381209656596184
20728582620,-0.217586100101471,-9.729567527771,-0.459741622209549,0.07500521838665009,-0.04272528737783432,0.06671136617660522
20741943836,-0.222202569246292,-9.7089786529541,-0.47095599770546,0.09627795964479446,-0.04062504321336746,0.06531248986721039
20748680591,-0.270977854728699,-9.70360469818115,-0.470369219779968,0.10927426069974899,-0.034694086760282516,0.05857820808887482
20758027076,-0.272296130657196,-9.76838302612305,-0.47970786690712,0.11370456963777542,-0.027961112558841705,0.04673612117767334
20768345117,-0.281850606203079,-9.76706695556641,-0.460411250591278,0.1096622496843338,-0.023051492869853973,0.032069940119981766
20777883529,-0.290930509567261,-9.66013526916504,-0.419791549444199,0.09832307696342468,-0.02226724661886692,0.018135616555809975
20808651447,-0.368854552507401,-9.6885404586792,-0.379373520612717,0.04410846158862114,-0.018328992649912834,0.01850168965756893
21038141012,-0.355896711349487,-9.78322505950928,-0.438122630119324,-0.03291928395628929,-0.03784773498773575,0.060474131256341934
21049951076,-0.31034043431282,-9.78522396087647,-0.448441743850708,-0.023096898570656776,-0.031056931242346764,0.057226140052080154
21057961225,-0.27932408452034,-9.76329040527344,-0.451011866331101,-0.013958712108433247,-0.03328156843781471,0.052965980023145676
21069651842,-0.276504039764404,-9.72751426696777,-0.450019806623459,-0.00551580497995019,-0.04367872327566147,0.04746566340327263
21078421592,-0.305868625640869,-9.72144031524658,-0.455503314733505,0.003843254642561078,-0.056835006922483444,0.0411212183535099
21087573766,-0.321209162473679,-9.74742889404297,-0.459679126739502,0.014539370313286781,-0.06612776964902878,0.0347345806658268
21098829030,-0.327261179685593,-9.72313404083252,-0.461265772581101,0.024448169395327568,-0.06766456365585327,0.02903938852250576
21110231399,-0.336953699588776,-9.68940258026123,-0.457958966493607,0.030304504558444023,-0.06156083196401596,0.024425970390439034
21118471860,-0.340234011411667,-9.68399715423584,-0.459540724754333,0.02996370941400528,-0.04996933788061142,0.021029295399785042
21780605316,-0.276976317167282,-9.72349452972412,-0.465109765529633,0.04294450581073761,-0.013135167770087719,0.031265974044799805
21790414810,-0.287686735391617,-9.72349071502686,-0.463790446519852,0.04179969057440758,-0.012845661491155624,0.027240967378020287
21802935123,-0.285837054252625,-9.73227214813233,-0.460693567991257,0.04105586186051369,-0.013741845265030861,0.022891415283083916
21810875892,-0.273235082626343,-9.72888946533203,-0.464811354875565,0.04120970144867897,-0.016321200877428055,0.018928207457065582
21872699975,-0.259307950735092,-9.67996597290039,-0.445079326629639,0.05555319786071777,-0.019260820001363754,0.01623539999127388
21882580041,-0.251676559448242,-9.70597648620605,-0.432934463024139,0.05931364372372627,-0.008959541097283363,0.020021187141537666
21890126228,-0.265746384859085,-9.72686767578125,-0.448564350605011,0.06271286308765411,0.0022346859332174063,0.024987205862998962
22358829021,-0.405398160219193,-9.73566818237305,-0.537934005260468,-0.06056215614080429,-0.03380485996603966,-0.05075478553771973
22429761409,-0.424220323562622,-9.68027305603027,-0.612179517745972,-0.08709070086479187,-0.04295531287789345,-0.08883438259363174
22469524383,-0.361351191997528,-9.6228666305542,-0.622860193252563,-0.08270061016082764,0.01885283552110195,-0.13142572343349457
22528398752,-0.357771515846252,-9.56013870239258,-0.476809084415436,-0.03516646847128868,0.09987731277942657,-0.11106996238231659
22538927555,-0.434777617454529,-9.68905353546143,-0.472313851118088,-0.04065115377306938,0.10956456512212753,-0.08044134080410004
22569365262,-0.414767533540726,-9.7910099029541,-0.468475043773651,-0.06420809030532837,0.08863303810358047,0.003460496896877885
22693730592,-0.346705764532089,-9.59619426727295,-0.542468547821045,0.011758752167224884,-0.015245498158037663,-0.09546130895614624
22705193042,-0.339983820915222,-9.56513690948487,-0.538239121437073,0.028482826426625252,-0.0015995539724826813,-0.09405121207237244
22711444616,-0.365852802991867,-9.58393383026123,-0.588762104511261,0.034412503242492676,0.02516637183725834,-0.08852709084749222
22722490787,-0.380119830369949,-9.64330673217773,-0.601659536361694,0.028339369222521782,0.05890006572008133,-0.0819181501865387
22752185583,-0.497909903526306,-9.71660804748535,-0.555678486824036,-0.04160004481673241,0.10459348559379578,-0.08728833496570587
22805870771,-0.406240910291672,-9.77030658721924,-0.492538243532181,-0.15568937361240387,0.005795196630060673,-0.0652465671300888
22901445150,-0.245695158839226,-9.7172737121582,-0.544398844242096,0.05645217001438141,-0.043356433510780334,-0.07794442772865295
23089591503,-0.262216746807098,-9.81109428405762,-0.552286386489868,0.07393728941679001,-0.032675471156835556,-0.05478927493095398
23278931856,-0.256152659654617,-9.70622730255127,-0.525082409381867,0.07880044728517532,-0.034734152257442474,-0.07254143059253693
23291636228,-0.223222777247429,-9.69442081451416,-0.500238180160522,0.08172811567783356,-0.040030479431152344,-0.1027107834815979
23339017629,-0.292919278144836,-9.71271514892578,-0.444840043783188,0.08476011455059052,-0.0011335021117702127,-0.02498016133904457
23499603986,-0.238598808646202,-9.6709566116333,-0.320722848176956,0.09330066293478012,0.052319228649139404,0.11507556587457657
23510671138,-0.237731128931046,-9.76947689056397,-0.325512588024139,0.1008070632815361,0.07190822809934616,0.13634304702281952
23523323535,-0.272972762584686,-9.7958459854126,-0.311867654323578,0.10498823970556259,0.07980889827013016,0.15169523656368256
23533056020,-0.283378958702087,-9.78403949737549,-0.306431442499161,0.10434120148420334,0.06853647530078888,0.1607593446969986
23539099216,-0.274199843406677,-9.79717254638672,-0.325341552495956,0.09810620546340942,0.03751566633582115,0.16468945145606995
23868899822,-0.408242642879486,-9.74991130828858,-0.442950695753098,-0.056766584515571594,0.018517501652240753,-0.012273748405277729
23930805206,-0.453358381986618,-9.7054557800293,-0.40094718337059,-0.12656638026237488,-0.0877005085349083,0.05113765224814415
23969495058,-0.404144555330277,-9.78732299804688,-0.503047585487366,-0.14309385418891907,-0.054641421884298325,0.06774646788835526
23979660987,-0.368756175041199,-9.74850749969483,-0.511822521686554,-0.13011282682418823,-0.03860596939921379,0.059942327439785004
24049246311,-0.225401103496552,-9.63282203674316,-0.632519721984863,0.04111482575535774,0.05306091532111168,-0.09983402490615845
24108968019,-0.298011988401413,-9.71824550628662,-0.565700471401215,0.07089361548423767,0.04576510563492775,-0.13278186321258545
24169999122,-0.274794071912766,-9.68491458892822,-0.484134405851364,0.011697874404489994,-0.020544346421957016,-0.07219675183296204
24210233449,-0.207636803388596,-9.74634170532227,-0.479109913110733,0.03839552775025368,-0.02314911223948002,-0.02145252749323845
24223953485,-0.203789845108986,-9.76285457611084,-0.490045815706253,0.05447964742779732,-0.027368424460291862,-0.007341902703046799
24234501361,-0.219892293214798,-9.77734375,-0.513745188713074,0.07265929132699966,-0.036770012229681015,0.0025742901489138603
24335388660,-0.376192390918732,-9.64779472351074,-0.56581175327301,0.059489622712135315,-0.062434833496809006,-0.188902348279953
24509284257,-0.408479511737823,-9.77893733978272,-0.666115880012512,0.0008673525881022215,-0.0393570251762867,-0.11304320394992828
24518345117,-0.464261561632156,-9.61868572235108,-0.664673984050751,0.0021918138954788446,-0.0877097100019455,-0.1247527152299881
24531225204,-0.441127359867096,-9.51710033416748,-0.661794185638428,-0.00500638410449028,-0.11613494157791138,-0.14300492405891418
24541899204,-0.357684314250946,-9.57609558105469,-0.685670554637909,-0.022961745038628578,-0.11191776394844055,-0.16291950643062592
24552298545,-0.324523478746414,-9.63477993011475,-0.715899229049683,-0.04743458330631256,-0.0725727379322052,-0.18050558865070343
24561467170,-0.353926658630371,-9.69382858276367,-0.727913022041321,-0.06862393021583557,-0.010413057170808315,-0.194419726729393
24759369134,-0.265022367238998,-9.79941272735596,-0.745789349079132,-0.0564318411052227,-0.0104220574721694,-0.17777110636234283
24769062995,-0.291834771633148,-9.72315788269043,-0.736047208309174,-0.04521416127681732,-0.018187059089541435,-0.1942739188671112
24780138969,-0.333014994859695,-9.64962196350098,-0.713483810424805,-0.025987133383750916,-0.03761869668960571,-0.2170935422182083
24789665937,-0.348349183797836,-9.62294864654541,-0.727442800998688,-0.0024135007988661528,-0.05651130527257919,-0.2400197684764862
24798990011,-0.357266038656235,-9.65367126464844,-0.720702409744263,0.01771428994834423,-0.06201685592532158,-0.25703558325767517
24830119371,-0.365796536207199,-9.71141719818115,-0.68150395154953,0.013241874985396862,0.011031039990484715,-0.25486505031585693
25030305862,-0.237886518239975,-9.68985748291016,-0.613056063652039,0.14273203909397125,-0.013434048742055893,-0.134822279214859
25043367147,-0.242567017674446,-9.64908123016358,-0.576169788837433,0.128993421792984,-0.033545754849910736,-0.14135050773620605
25051281452,-0.244636252522469,-9.66018104553223,-0.601621031761169,0.11583612859249115,-0.05223090574145317,-0.14646495878696442
25099907159,-0.170418918132782,-9.89806175231934,-0.572563588619232,0.08943312615156174,0.057636551558971405,-0.08334324508905411
25108867406,-0.157116025686264,-9.90338516235352,-0.633545517921448,0.0977630764245987,0.0698898583650589,-0.06338515132665634
25118818044,-0.153869047760963,-9.82879543304444,-0.648795604705811,0.11188267916440964,0.04929528012871742,-0.05313090607523918
25133435010,-0.175381705164909,-9.79471206665039,-0.670163094997406,0.12978938221931458,-0.0017377780750393867,-0.057993095368146896
25140019655,-0.111750468611717,-9.72983646392822,-0.728686332702637,0.14816659688949585,-0.06603153795003891,-0.07902561873197556
25149754524,-0.111350663006306,-9.59622669219971,-0.715763211250305,0.1643403023481369,-0.12000615894794464,-0.11281035840511322
25158511400,-0.138778939843178,-9.5280351638794,-0.735693514347077,0.1776971071958542,-0.14328575134277344,-0.15327079594135284
25169531106,-0.294359683990479,-9.57397556304932,-0.725509285926819,0.1878027319908142,-0.12541812658309937,-0.19342991709709167
25768748998,-0.497750043869019,-9.66718578338623,-0.572470724582672,-0.28116580843925476,0.014188316650688648,-0.06717849522829056
25778199434,-0.471360921859741,-9.5966386795044,-0.580715179443359,-0.2569423019886017,-0.0007873090798966587,-0.06882791966199875
25978318691,-0.306926429271698,-9.7415189743042,-0.549472749233246,0.025872377678751945,-0.1602453589439392,-0.021695729345083237
25989417552,-0.318700224161148,-9.78772640228272,-0.586283445358276,0.01765548437833786,-0.13647086918354034,-0.026150207966566086
25998616218,-0.304150968790054,-9.82081031799316,-0.589579820632935,0.005072678904980421,-0.10123006999492645,-0.03476565331220627
26118944406,-0.362220734357834,-9.67548179626465,-0.73482871055603,0.0393926165997982,0.051931850612163544,-0.13174670934677124
26358879089,-0.22046110033989,-9.59610748291016,-0.577097535133362,-0.04140175133943558,-0.08195991069078445,0.03972497209906578
26369075298,-0.266281366348267,-9.65680408477783,-0.625171482563019,-0.016470730304718018,-0.07861167192459106,0.020312462002038956
26379845142,-0.272437870502472,-9.70466423034668,-0.68578839302063,0.010221871547400951,-0.05975688248872757,-0.010129245929419994
26388200759,-0.265734761953354,-9.70904541015625,-0.707034170627594,0.03720906004309654,-0.02915460430085659,-0.04921819269657135
26799068689,-0.20656843483448,-9.69036293029785,-0.479279100894928,0.08034995943307877,-0.1432567834854126,-0.010118982754647732
26809255123,-0.231090366840363,-9.70856285095215,-0.514841377735138,0.08481582999229431,-0.15756559371948242,-0.012164552696049213
27408626794,-0.328372269868851,-9.62331867218018,-0.471296817064285,0.054422687739133835,-0.03550949692726135,-0.027126165106892586
27418485164,-0.297387063503265,-9.66679573059082,-0.505523443222046,0.041544098407030106,-0.021494176238775253,-0.025256521999835968
27558981418,-0.216960534453392,-9.79803562164307,-0.460061103105545,0.11943282186985016,0.06256505101919174,-0.06984572857618332
27637683391,-0.449784994125366,-9.80116844177246,-0.598566710948944,-0.176341250538826,0.007516282144933939,-0.09022772312164307
27647223472,-0.411823242902756,-9.5635461807251,-0.564414143562317,-0.2196606695652008,0.0021440754644572735,-0.12408892065286636
27657148599,-0.567382216453552,-9.57852458953858,-0.482491582632065,-0.23369131982326508,-0.025896968320012093,-0.14701901376247406
27669734001,-0.637603998184204,-9.62933349609375,-0.429019898176193,-0.2220814973115921,-0.05146833509206772,-0.15179137885570526
27677973031,-0.502435207366943,-9.4925479888916,-0.432007908821106,-0.19995397329330444,-0.05332644283771515,-0.13465087115764618
27698198318,-0.426199972629547,-9.49638748168945,-0.45652049779892,-0.17169147729873657,0.030409127473831177,-0.049266304820775986
28077207565,-0.403283894062042,-9.65504169464112,-0.434233069419861,-0.11045436561107635,-0.07782969623804092,0.08627592772245407
28091098308,-0.425765931606293,-9.66044616699219,-0.438039362430573,-0.12630705535411835,-0.05227537453174591,0.07875102013349533
28099399089,-0.355423659086227,-9.68234157562256,-0.459925979375839,-0.12595199048519135,-0.027109183371067047,0.06533023715019226
28108556747,-0.278282761573792,-9.697509765625,-0.455695807933807,-0.1121460497379303,-0.0043633622117340565,0.05040673166513443
28575875520,-0.226452529430389,-9.71975040435791,-0.466639131307602,0.133046492934227,0.03673617169260979,-0.009058913215994835
28768933534,-0.304415017366409,-9.7423791885376,-0.484800845384598,0.05215083062648773,-0.010399210266768932,0.014844332821667194
28778148412,-0.336979925632477,-9.73868179321289,-0.483064621686935,0.057319749146699905,-0.009546611458063126,0.008134257979691029
28848400592,-0.337522089481354,-9.73302268981934,-0.429407328367233,-0.010835199616849422,-0.045430153608322144,0.036804746836423874
29147822380,-0.274034202098846,-9.70726776123047,-0.479014068841934,0.07199130207300186,-0.0017546676099300385,0.012011398561298847
29157667160,-0.278874069452286,-9.70457649230957,-0.473225206136704,0.07378216832876205,-0.0019091629656031728,0.009883650578558445
29254683017,-0.295450538396835,-9.71372985839844,-0.447127312421799,0.018616793677210808,-0.014229600317776203,0.033788349479436874
29337427854,-0.267719238996506,-9.70118618011475,-0.476552873849869,0.05541366711258888,-0.005310734733939171,0.004298111889511347
29568280935,-0.299845576286316,-9.71303272247315,-0.457998514175415,0.04565200209617615,-0.01369899045675993,0.002644866006448865
29658056020,-0.307673156261444,-9.71370887756348,-0.466777861118317,0.01602374017238617,-0.01760225184261799,0.019620580598711967
29669334411,-0.293578267097473,-9.71471786499023,-0.465391576290131,0.0159398652613163,-0.017878500744700432,0.018480408936738968
29808427095,-0.313031107187271,-9.72519397735596,-0.465135931968689,0.0244956873357296,-0.025594761595129967,0.016725432127714157
29824189186,-0.31062239408493,-9.71203517913819,-0.462094783782959,0.020742852240800858,-0.02722368761897087,0.01578427292406559
29863174676,-0.299618393182755,-9.73093128204346,-0.460179626941681,0.014140804298222065,-0.02424764260649681,0.011914563365280628
29908315420,-0.289332002401352,-9.70460510253906,-0.466504782438278,0.028670979663729668,-0.02324626035988331,0.011638600379228592
29919918775,-0.302915751934052,-9.69988918304444,-0.461997240781784,0.031098157167434692,-0.02360742725431919,0.011349388398230076
29930682897,-0.307230144739151,-9.72046947479248,-0.469505190849304,0.03267032280564308,-0.02254517376422882,0.011209090240299702
30307356595,-0.319690674543381,-9.70764350891113,-0.465141087770462,0.03132682666182518,-0.01280202716588974,0.011143473908305168
30436002254,-0.306777060031891,-9.7187442779541,-0.473219573497772,0.019594134762883186,-0.01059912983328104,0.01468668133020401
30798317909,-0.321793735027313,-9.72147464752197,-0.461270570755005,0.01455205213278532,-0.01711106114089489,0.011739498935639858
30982315301,-0.306389063596726,-9.71977519989014,-0.472061693668365,0.012172682210803032,-0.01678452454507351,0.00924610998481512
30989076614,-0.318140149116516,-9.7204532623291,-0.470405906438828,0.013106276281177998,-0.017583440989255905,0.008113631047308445
30997827291,-0.30548620223999,-9.72383403778076,-0.469520509243011,0.014171610586345196,-0.018586646765470505,0.006978300400078297
31268141746,-0.324892580509186,-9.71640777587891,-0.476072996854782,0.014678983017802238,-0.017681363970041275,0.00911800842732191
31519317388,-0.319149911403656,-9.70932674407959,-0.469404369592667,0.013642421923577785,-0.009321155957877636,0.009900841861963272
31688268661,-0.316216051578522,-9.70965957641602,-0.467364847660065,0.014497702941298485,-0.007987171411514282,0.011243972927331924
31702750682,-0.31276947259903,-9.70121479034424,-0.47032168507576,0.014865875244140625,-0.008854975923895836,0.009266102686524391
31709532737,-0.30706998705864,-9.70156192779541,-0.466873675584793,0.014716916717588902,-0.01004383061081171,0.00738098006695509
31722728013,-0.316804558038712,-9.71910285949707,-0.468290209770203,0.014477764256298542,-0.01079581119120121,0.006294620223343372
31779012203,-0.315909743309021,-9.72079372406006,-0.467375487089157,0.015989145264029503,-0.011838537640869617,0.009404120035469532
32040619611,-0.308987647294998,-9.71101093292237,-0.467950582504272,0.010926098562777042,-0.022122539579868317,0.005222265608608723
32138275623,-0.320721626281738,-9.71033191680908,-0.477804511785507,0.012831991538405418,-0.019903186708688736,0.009245273657143116
32147978544,-0.326914489269257,-9.70629501342773,-0.472484111785889,0.012013404630124569,-0.01959989406168461,0.009276012890040874
32277741670,-0.312571823596954,-9.71607685089112,-0.467747271060944,0.016134873032569885,-0.016431400552392006,0.007283173035830259
32288352012,-0.324936807155609,-9.70460319519043,-0.469980120658875,0.013928652741014957,-0.014580793678760529,0.006718221120536327
32299864530,-0.314786940813065,-9.72078800201416,-0.467185497283936,0.012300774455070496,-0.013720681890845299,0.006333367433398962
32317428588,-0.31672278046608,-9.71640777587891,-0.472890347242355,0.011025987565517426,-0.014141570776700974,0.006759560201317072
32878378391,-0.325786083936691,-9.70088291168213,-0.472207188606262,0.009250420145690441,-0.013579306192696095,0.011066041886806488
32894357681,-0.334949105978012,-9.70562171936035,-0.468634247779846,0.009820079430937767,-0.013668110594153404,0.010021601803600788
32897785902,-0.313482016324997,-9.71639633178711,-0.479069948196411,0.009001943282783031,-0.013282119296491146,0.008977456949651241
32907928228,-0.323637932538986,-9.71033763885498,-0.471556544303894,0.007118929177522659,-0.012524250894784927,0.008002262562513351
32917685508,-0.330832272768021,-9.71809768676758,-0.469712018966675,0.005117042921483517,-0.011862240731716156,0.007023760583251715
32929899215,-0.324555426836014,-9.71472263336182,-0.474878311157227,0.003728746436536312,-0.011812438257038593,0.0061002690345048904
33468551158,-0.329852074384689,-9.70695877075195,-0.46917200088501,0.0040886481292545795,-0.016692502424120903,1.8980827007908374e-06
33478067159,-0.323674499988556,-9.71675491333008,-0.472423255443573,0.004733087960630655,-0.01733289659023285,0.00020808573754038662
33718363046,-0.343499928712845,-9.69921779632569,-0.462121456861496,-0.004783748649060726,-0.0135794747620821,0.003694868180900812
33838718175,-0.32724267244339,-9.71135044097901,-0.470418065786362,-0.006428734865039587,-0.017439359799027443,0.002176200971007347
33933767080,-0.326309025287628,-9.71200275421143,-0.474378734827042,0.0011412684107199311,-0.010134931653738022,0.009922531433403492
33941286325,-0.323765933513641,-9.71067237854004,-0.472487181425095,0.0013963537057861686,-0.010042327456176281,0.009175495244562626
33951959609,-0.337757438421249,-9.71777439117432,-0.462584853172302,0.0016128866700455546,-0.010274779982864857,0.007817602716386318
34199387550,-0.322337180376053,-9.70324325561523,-0.472413927316666,0.004373608622699976,-0.017781449481844902,0.0048516965471208096
34248094797,-0.319589406251907,-9.71471309661865,-0.472607374191284,0.006190118845552206,-0.01175672933459282,0.009027767926454544
34307883024,-0.326864153146744,-9.71202087402344,-0.469092547893524,0.005169954150915146,-0.018547162413597107,0.007408985868096352
34318077564,-0.314438283443451,-9.70897674560547,-0.469680309295654,0.0047088912688195705,-0.018131019547581673,0.007051505148410797
34328769445,-0.318886339664459,-9.71674919128418,-0.466773003339768,0.004668790847063065,-0.017252981662750244,0.007105771917849779
34361317396,-0.322922080755234,-9.70223236083984,-0.468443602323532,0.007303248159587383,-0.01511430274695158,0.008627341128885746
34537171125,-0.330981254577637,-9.7177619934082,-0.466499805450439,0.0115162068977952,-0.010794318281114101,0.0058856625109910965
34610159397,-0.313823074102402,-9.71541404724121,-0.46005654335022,0.011073586530983448,-0.018211809918284416,0.006629263050854206
34637284755,-0.312911123037338,-9.71336555480957,-0.472338080406189,0.008718584664165974,-0.018844768404960632,0.00754470145329833
34749088287,-0.305529981851578,-9.71506118774414,-0.466898262500763,0.014414356090128422,-0.013288836926221848,0.006519267335534096
34798093557,-0.313025444746018,-9.71909427642822,-0.477334290742874,0.01645873673260212,-0.016241468489170074,0.005890157539397478
34858722209,-0.306970804929733,-9.71977996826172,-0.466561257839203,0.018690647557377815,-0.014321373775601387,0.004662776365876198
34908409118,-0.310070216655731,-9.71641731262207,-0.465790003538132,0.017509058117866516,-0.014675979502499104,0.0072598750703036785
34918644666,-0.315699577331543,-9.71505928039551,-0.465573966503143,0.017379155382514,-0.014352519065141678,0.006589291617274284
34941987514,-0.320403933525085,-9.72417163848877,-0.475564002990723,0.017007147893309593,-0.01446075551211834,0.006202310789376497
34949359416,-0.313350915908813,-9.71236038208008,-0.470524668693542,0.016381874680519104,-0.015206948854029179,0.006356487050652504
34964851379,-0.319099128246307,-9.71336555480957,-0.47222176194191,0.015468595549464226,-0.016506236046552658,0.006838290952146053
34985762357,-0.313998132944107,-9.71538543701172,-0.472023725509644,0.013520053587853909,-0.018624816089868546,0.007259913254529238
35358333587,-0.305943518877029,-9.70997428894043,-0.479179680347443,0.019503142684698105,-0.019537823274731636,0.008875343948602676
35418236017,-0.312397450208664,-9.71269702911377,-0.472753971815109,0.021511435508728027,-0.014027578756213188,0.0019366232445463538
35468107461,-0.298567801713944,-9.71672439575195,-0.475106775760651,0.017301686108112335,-0.010964355431497097,0.009434152394533157
35527933597,-0.314794898033142,-9.70830535888672,-0.470373600721359,0.019513124600052834,-0.015825266018509865,0.002689504064619541
35590513467,-0.311096280813217,-9.71168613433838,-0.466902822256088,0.014293254353106022,-0.012322811409831047,0.009945408441126347
35598696231,-0.305781096220017,-9.70661354064941,-0.47136402130127,0.01442207582294941,-0.012202214449644089,0.010285181924700737
35728660821,-0.307815402746201,-9.706618309021,-0.4676274061203,0.010193081572651863,-0.016099730506539345,0.009187914431095123
35739099740,-0.310362666845322,-9.71067714691162,-0.465498059988022,0.010208331048488617,-0.016765300184488297,0.00918638613075018
35748845815,-0.31304544210434,-9.7066068649292,-0.476395070552826,0.011383557692170143,-0.016599591821432114,0.009121804498136044
35766984224,-0.317296862602234,-9.70730018615723,-0.468477874994278,0.013383692130446434,-0.015521092340350151,0.008934304118156433
35778840303,-0.315222144126892,-9.71303749084473,-0.469506800174713,0.01545475423336029,-0.013839758932590485,0.008589718490839005
35781231403,-0.3102807700634,-9.70796394348145,-0.472236514091492,0.016847241669893265,-0.012099312618374825,0.008135402575135231
35863142251,-0.311748445034027,-9.70594596862793,-0.468464344739914,0.01729695126414299,-0.010811656713485718,0.007706560660153627
36240492820,-0.309704631567001,-9.71169948577881,-0.456532895565033,0.013109173625707626,-0.016020651906728745,0.009094912558794022
36249332189,-0.314557105302811,-9.72214031219483,-0.473033219575882,0.013334494084119797,-0.015163013711571693,0.010174508206546307
36260841608,-0.31992906332016,-9.71304130554199,-0.466059505939484,0.014095637947320938,-0.014462933875620365,0.011162348091602325
36438677072,-0.317360907793045,-9.72148227691651,-0.461073279380798,0.012365283444523811,-0.014121110551059246,0.004671188071370125
36449612617,-0.316159069538116,-9.71473026275635,-0.465879738330841,0.012724168598651886,-0.015234014950692654,0.004204956814646721
36458939075,-0.316574990749359,-9.71809387207031,-0.470258235931396,0.013714241795241833,-0.016949275508522987,0.004657946061342955
36469209909,-0.316934555768967,-9.71641254425049,-0.467918545007706,0.014738102443516254,-0.01868397556245327,0.00601939158514142
36473149061,-0.308109015226364,-9.7103385925293,-0.463862478733063,0.015298448503017426,-0.019926095381379128,0.00784462783485651
36488782644,-0.319763094186783,-9.7164134979248,-0.469769060611725,0.015335389412939548,-0.02035149373114109,0.009594112634658813
36495781660,-0.318447470664978,-9.71774864196777,-0.474582970142365,0.015048573724925518,-0.019924988970160484,0.010871181264519691
36547804594,-0.314531207084656,-9.70526599884033,-0.474061995744705,0.010217190720140934,-0.018135856837034225,0.007540976628661156
36980095624,-0.327615082263947,-9.70695781707764,-0.4711973965168,0.006269753444939852,-0.00839373841881752,0.007867463864386082
36987029075,-0.324623078107834,-9.70661640167237,-0.475132197141647,0.008576631546020508,-0.006954004056751728,0.008255144581198692
36997047185,-0.321442395448685,-9.72451210021973,-0.465151339769363,0.009996619075536728,-0.006540151312947273,0.008406270295381546
37006779909,-0.314829975366592,-9.70495223999023,-0.457380145788193,0.01013880129903555,-0.0073941489681601524,0.008338441140949726
37018543004,-0.315757155418396,-9.71607875823975,-0.470589995384216,0.009420813992619514,-0.009367523714900017,0.00843008328229189
37029557228,-0.315958172082901,-9.72281646728516,-0.473591595888138,0.008704228326678276,-0.011925349943339825,0.009020103141665459
37038916587,-0.318871319293976,-9.71574783325195,-0.465106278657913,0.008649738505482674,-0.014524884521961212,0.009905003011226654
37047897577,-0.323350578546524,-9.7025785446167,-0.469875603914261,0.009325281716883183,-0.016802402213215828,0.0105822728946805
37064410448,-0.313805341720581,-9.70223236083984,-0.482141226530075,0.010297790169715881,-0.018234888091683388,0.010717283003032207
37068633317,-0.322796255350113,-9.7130241394043,-0.473259627819061,0.011069749481976032,-0.018181664869189262,0.010110076516866684
37110357046,-0.317049264907837,-9.71167850494385,-0.46993413567543,0.01104086171835661,-0.010304983705282211,0.006345483940094709
37117866754,-0.321184575557709,-9.71809482574463,-0.471524983644486,0.010545025579631329,-0.010348494164645672,0.007691334467381239
38240875005,-0.308865666389465,-9.70730209350586,-0.465206891298294,0.009606046602129936,-0.01661248691380024,0.00870163831859827
38418532609,-0.307233363389969,-9.70593070983887,-0.472423940896988,0.01662367396056652,-0.01429095957428217,0.007751057855784893
38427740812,-0.321417689323425,-9.718092918396,-0.478090912103653,0.0183195061981678,-0.014591298997402191,0.007335554342716932
38561669826,-0.319247335195541,-9.69683170318604,-0.470776796340942,0.014005239121615887,-0.014935752376914024,0.006293926853686571
38567262411,-0.312847465276718,-9.71708679199219,-0.470464080572128,0.015551190823316574,-0.01282906997948885,0.005363354925066233
38577691555,-0.322460412979126,-9.70595169067383,-0.471022576093674,0.016294119879603386,-0.010677222162485123,0.00480114109814167
38587868213,-0.315653592348099,-9.71472358703613,-0.471520066261292,0.016066379845142365,-0.00910694245249033,0.004796913824975491
38627925157,-0.31534019112587,-9.71945476531983,-0.467721611261368,0.01026003248989582,-0.00991654023528099,0.0066651334054768085
38729960203,-0.324253439903259,-9.71169281005859,-0.466019004583359,0.01191671472042799,-0.017583811655640602,0.008013304322957993
38740053415,-0.324487537145615,-9.72010612487793,-0.478727638721466,0.011987043544650078,-0.017071153968572617,0.005937668029218912
38920691967,-0.312970995903015,-9.71875667572022,-0.474442273378372,0.00983287300914526,-0.014250068925321102,0.00829258468002081
39139077901,-0.322306275367737,-9.6988697052002,-0.464793294668198,0.016839545220136642,-0.014745613560080528,0.0076343645341694355
39167448282,-0.312919914722443,-9.70965480804444,-0.471204876899719,0.015047022141516209,-0.011833515018224716,0.005133528728038073
39182767152,-0.311975538730621,-9.70763969421387,-0.463431596755981,0.013840348459780216,-0.01156139187514782,0.005517982412129641
39279571533,-0.31603068113327,-9.71032428741455,-0.475195229053497,0.0102737657725811,-0.014124947600066662,0.006186874117702246
39290760755,-0.315776467323303,-9.71473598480225,-0.462238162755966,0.010192567482590675,-0.015386446379125118,0.006517915986478329
39298939466,-0.31873419880867,-9.71843433380127,-0.469489216804504,0.01049097441136837,-0.016821755096316338,0.007192183285951614
39308612823,-0.314490437507629,-9.71101570129395,-0.473751127719879,0.011081138625741005,-0.017887689173221588,0.008072062395513058
39317180395,-0.316158086061478,-9.71371650695801,-0.473502039909363,0.011773376725614071,-0.01836269721388817,0.008864996954798698
39369741678,-0.322653084993362,-9.71336650848389,-0.477890610694885,0.014077686704695225,-0.014651869423687458,0.006892449222505093
39389549970,-0.316562682390213,-9.70966815948487,-0.463135480880737,0.014187398366630077,-0.013338955119252205,0.005982831120491028
39399022817,-0.314749240875244,-9.71369934082031,-0.475704818964005,0.013751553371548653,-0.012543714605271816,0.005390103440731764
39406453609,-0.3118976354599,-9.7167329788208,-0.476037561893463,0.012959406711161137,-0.012394629418849945,0.005228138528764248
39408973932,-0.31243434548378,-9.70795631408691,-0.478649228811264,0.012315673753619194,-0.012850366532802582,0.005320538301020861
39418709278,-0.323358535766602,-9.70528030395508,-0.464453548192978,0.012226992286741734,-0.013648007065057755,0.005296663381159306
39427521228,-0.318404883146286,-9.70731067657471,-0.468207985162735,0.012613999657332897,-0.014257329516112804,0.005079695023596287
39437478303,-0.309696406126022,-9.71101760864258,-0.465884953737259,0.013030529953539371,-0.014188852161169052,0.00504629360511899
39711766004,-0.318012624979019,-9.7147331237793,-0.465796709060669,0.01609399914741516,-0.014285469427704811,0.006532855331897736
40908585548,-0.308490067720413,-9.72113418579102,-0.474876254796982,0.020692914724349976,-0.013312267139554024,0.0072623793967068195
40918824195,-0.306065738201141,-9.7103271484375,-0.477001756429672,0.02212589792907238,-0.01320713758468628,0.007192663848400116
40929892063,-0.302613854408264,-9.70932674407959,-0.464207530021667,0.023164335638284683,-0.01388173084706068,0.0069910679012537
40937921047,-0.314187318086624,-9.71067714691162,-0.467826753854752,0.023631544783711433,-0.014911092817783356,0.006676891818642616
40947977542,-0.307685434818268,-9.72012996673584,-0.468772649765015,0.023556165397167206,-0.01569448597729206,0.006541271694004536
40958964586,-0.303485780954361,-9.70424461364746,-0.478061199188232,0.023012161254882812,-0.01597340777516365,0.006816179491579533
40983083009,-0.313766032457352,-9.71640682220459,-0.471884906291962,0.021505478769540787,-0.015434300526976585,0.007541861850768328
41277820587,-0.311089247465134,-9.71505451202393,-0.474215537309647,0.01804877258837223,-0.019106918945908546,0.004852165002375841
41288878202,-0.306632310152054,-9.71235847473145,-0.470819085836411,0.019028371199965477,-0.02011007070541382,0.004775423556566238
41298498392,-0.299905598163605,-9.72145080566406,-0.477147608995438,0.020024897530674934,-0.020686782896518707,0.004732140805572271
41315226316,-0.308476239442825,-9.7110013961792,-0.468087553977966,0.020992493256926537,-0.020590534433722496,0.004800575785338879
41318949460,-0.313681691884995,-9.7103214263916,-0.479649901390076,0.02193232625722885,-0.019919419661164284,0.004915117286145687
41328167915,-0.313927739858627,-9.70931625366211,-0.472594141960144,0.022589297965168953,-0.018814202398061752,0.004964328836649656
41378252983,-0.307124584913254,-9.70424747467041,-0.47842338681221,0.019240589812397957,-0.010706574656069279,0.0025293147191405296
42057704925,-0.311689883470535,-9.72418594360352,-0.465462177991867,0.01649523712694645,-0.01476238388568163,0.0025382493622601032
42067888259,-0.314791351556778,-9.71672821044922,-0.484703153371811,0.01667932979762554,-0.015175029635429382,0.002720497315749526
42077438354,-0.302947849035263,-9.71607875823975,-0.465929657220841,0.01690097525715828,-0.01600319892168045,0.0036882974673062563
42090526342,-0.317950814962387,-9.70559978485108,-0.475035935640335,0.017113352194428444,-0.017209777608513832,0.0048585254698991776
42097371816,-0.315391331911087,-9.72281360626221,-0.475952118635178,0.017343534156680107,-0.018284598365426064,0.005716964136809111
42108876228,-0.323180794715881,-9.70930862426758,-0.480934143066406,0.01738789677619934,-0.018750706687569618,0.0059938556514680386
42507411956,-0.324407815933228,-9.71966171264648,-0.545475602149963,0.03642132133245468,-0.011134800501167774,-0.03552696108818054
42519383907,-0.32042208313942,-9.71728992462158,-0.552192687988281,0.03314526751637459,-0.01216759905219078,-0.041662365198135376
42527767181,-0.314665228128433,-9.71289825439453,-0.553224146366119,0.028210880234837532,-0.01415262371301651,-0.04923837631940842
42543792009,-0.331335574388504,-9.71999549865723,-0.552781581878662,0.022044263780117035,-0.016569094732403755,-0.05731198936700821
42555167436,-0.328603327274323,-9.71427726745605,-0.543634116649628,0.01565750129520893,-0.01869017258286476,-0.06484361737966537
42563422203,-0.329079955816269,-9.71192359924316,-0.540459275245667,0.00990140438079834,-0.020011963322758675,-0.07069583982229233
42637805461,-0.336392492055893,-9.71694946289062,-0.561422765254974,0.0057095629163086414,-0.014652608893811703,-0.06184541434049606
42697682380,-0.355375707149506,-9.72275161743164,-0.526075839996338,-0.017503682523965836,-0.02675621025264263,-0.07486048340797424
42708335638,-0.363707005977631,-9.71297836303711,-0.515018224716187,-0.021902918815612793,-0.027574051171541214,-0.07226377725601196
42719823837,-0.356117755174637,-9.72346115112305,-0.505709886550903,-0.02520853467285633,-0.02751065045595169,-0.06692465394735336
43486904144,-0.344487577676773,-9.70559120178223,-0.494410574436188,-0.024322645738720894,-0.012298306450247765,-0.010108556598424911
43489719390,-0.345198154449463,-9.70322036743164,-0.499228954315186,-0.025071779265999794,-0.015800995752215385,-0.011596595868468285
43499975919,-0.336876064538956,-9.70120143890381,-0.495104670524597,-0.025040756911039352,-0.017093438655138016,-0.01298594381660223
43509010791,-0.339584022760391,-9.70592403411865,-0.505200386047363,-0.023741690441966057,-0.015990164130926132,-0.014424320310354233
43609564542,-0.331496059894562,-9.72513294219971,-0.509333908557892,0.006652912590652704,-0.006471178960055113,-0.02912532165646553
43818465471,-0.329401284456253,-9.71399593353272,-0.494465500116348,0.0033534544054418802,-0.008928492665290833,-0.029074961319565773
43828799962,-0.327546238899231,-9.72310733795166,-0.506525814533234,0.0033610414247959852,-0.01121715921908617,-0.028648244217038155
43838008403,-0.324118703603745,-9.71804714202881,-0.501761257648468,0.0033640118781477213,-0.014291105791926384,-0.027794936671853065
43849246740,-0.316544681787491,-9.71130466461182,-0.498521149158478,0.0033293338492512703,-0.017494630068540573,-0.026622705161571503
43858618974,-0.321338057518005,-9.71298885345459,-0.507463872432709,0.003476710757240653,-0.020033858716487885,-0.025389695540070534
43867915153,-0.324613630771637,-9.7116289138794,-0.510353922843933,0.004093905910849571,-0.021227886900305748,-0.02441955916583538
43878074407,-0.311323314905167,-9.70995235443115,-0.500663638114929,0.005203050561249256,-0.020843952894210815,-0.024079926311969757
43916144371,-0.315095782279968,-9.70218944549561,-0.507754266262055,0.010295256972312927,-0.01423981599509716,-0.02779018133878708
43919236421,-0.311660021543503,-9.7186918258667,-0.523777663707733,0.012004741467535496,-0.011804713867604733,-0.03023136779665947
44755125045,-0.360062390565872,-9.71545028686523,-0.446136116981506,-0.02549382857978344,0.0005275121075101197,-0.02185100130736828
44759101390,-0.366875261068344,-9.73503684997559,-0.434038549661636,-0.0276446882635355,0.008389407768845558,-0.010950309224426746
44981939077,-0.333282500505447,-9.6981954574585,-0.489586770534515,0.016275566071271896,0.015651315450668335,-0.007224929053336382
45113878250,-0.303302347660065,-9.67144775390625,-0.532522261142731,0.0018048986094072461,-0.0006321832770481706,-0.011324585415422916
45269340991,-0.300427943468094,-9.70396995544434,-0.376238465309143,-0.030762474983930588,0.006034526973962784,0.04201298579573631
45281721830,-0.291884899139404,-9.6968936920166,-0.373033374547958,-0.025941288098692894,-0.003228755434975028,0.05259411782026291
45477883100,-0.314023613929749,-9.73732757568359,-0.428731977939606,0.021227961406111717,-0.0076109678484499454,0.03441538289189339
45598448991,-0.329663664102554,-9.5443000793457,-0.511583864688873,-0.0058647869154810905,-0.09195144474506378,-0.08925019949674606
45609615802,-0.334097743034363,-9.53892040252686,-0.475304633378983,-0.027226265519857407,-0.08954718708992004,-0.11223867535591125
45617649793,-0.439244151115417,-9.68001651763916,-0.449805974960327,-0.042438995093107224,-0.06636796146631241,-0.11900696903467178
45629923343,-0.483946859836578,-9.86180114746094,-0.564212620258331,-0.04997554048895836,-0.024239979684352875,-0.10640805214643478
45638695478,-0.38129073381424,-9.87079906463623,-0.644459962844849,-0.054354097694158554,0.0192413292825222,-0.08016763627529144
45707943916,-0.232962265610695,-9.60770893096924,-0.86771547794342,0.04056788980960846,-0.07239613682031631,-0.2994028925895691
46118004322,-0.257920175790787,-9.77762317657471,-0.57631254196167,0.07504452019929886,0.017163999378681183,-0.01145046204328537
46277761459,-0.269591003656387,-9.7094898223877,-0.541383743286133,-0.013257872313261032,-0.014370189048349857,-0.021069049835205078
46553946018,-0.286746919155121,-9.6995677947998,-0.389140129089355,0.11341436952352524,-0.030738653615117073,0.04452425613999367
46561172962,-0.304327309131622,-9.72218418121338,-0.397696763277054,0.1004713848233223,-0.026181595399975777,0.049864739179611206
46569338560,-0.298441886901855,-9.75458240509033,-0.394982039928436,0.08273310214281082,-0.018932364881038666,0.05990249663591385
46619207859,-0.315927714109421,-9.7083568572998,-0.396248608827591,0.019139407202601433,-0.04231007397174835,0.09002266824245453
46628095149,-0.315126657485962,-9.70567035675049,-0.389596074819565,0.0166520606726408,-0.05133898928761482,0.08846415579319
46638046026,-0.324653327465057,-9.70498180389404,-0.402995884418488,0.015372266061604023,-0.053335562348365784,0.08653691411018372
46687219142,-0.259666711091995,-9.78285217285156,-0.461105525493622,0.020833062008023262,-0.0030267781112343073,0.07496322691440582
47097057342,-0.31660321354866,-9.67220115661621,-0.537636280059814,-0.004112104885280132,0.006479195319116116,-0.053543541580438614
47179414272,-0.318511128425598,-9.69190406799316,-0.49224841594696,-0.0031102243810892105,-0.015813179314136505,-0.04878830164670944
47188847064,-0.323455214500427,-9.69425010681152,-0.494795441627502,-0.0035560717806220055,-0.02260071039199829,-0.041105542331933975
47197918653,-0.317886054515839,-9.69325256347656,-0.487009048461914,-0.00224687485024333,-0.023872757330536842,-0.03281501308083534
47207871437,-0.315807700157166,-9.69998836517334,-0.48789843916893,0.0005099226254969835,-0.019806237891316414,-0.024918099865317345
47382225513,-0.336050242185593,-9.69122314453125,-0.463846057653427,-0.013738439418375492,-0.027235331013798714,0.0032376297749578953
47389647483,-0.331667333841324,-9.69117736816406,-0.484314471483231,-0.013577544130384922,-0.031162314116954803,0.005694841034710407
47397900819,-0.335600614547729,-9.71546363830566,-0.493637412786484,-0.011819561943411827,-0.029629958793520927,0.007393230218440294
47408493280,-0.327789574861527,-9.74986743927002,-0.505320727825165,-0.009216698817908764,-0.02338961511850357,0.007335111033171415
47417894601,-0.341483235359192,-9.75222396850586,-0.516660690307617,-0.006536675617098808,-0.016245940700173378,0.004450439475476742
47428714990,-0.341225266456604,-9.74510955810547,-0.533471882343292,-0.004477052949368954,-0.012882489711046219,-0.0018363127019256353
47438011169,-0.319085955619812,-9.72992610931397,-0.53218400478363,-0.003535387571901083,-0.0157875195145607,-0.011354178190231323
47448817968,-0.331339925527573,-9.69924926757812,-0.516250014305115,-0.0035822251811623573,-0.0236536655575037,-0.023050975054502487
48290563106,-0.252845197916031,-9.67100524902344,-0.564510881900787,-0.01388058066368103,0.02051687240600586,-0.04000352323055267
48467954874,-0.281233906745911,-9.59446430206299,-0.541585803031921,0.006950662937015295,-0.04407022148370743,-0.09850885719060898
48478694677,-0.263601303100586,-9.67744255065918,-0.554578125476837,0.02131549082696438,-0.013309990055859089,-0.09015648066997528
48492557525,-0.266292095184326,-9.7523078918457,-0.588172197341919,0.036565203219652176,0.027866777032613754,-0.07922524958848953
48499492645,-0.267552226781845,-9.82011985778809,-0.612767636775971,0.04974164068698883,0.06196092441678047,-0.0704244002699852
48509141445,-0.263706862926483,-9.80493640899658,-0.6196209192276,0.059249650686979294,0.07298458367586136,-0.06843096017837524
48517925977,-0.253918796777725,-9.72667217254639,-0.601252377033234,0.06479864567518234,0.05473838001489639,-0.0755753442645073
48528403520,-0.264136254787445,-9.65110015869141,-0.576225280761719,0.0671984851360321,0.014881975948810577,-0.09024305641651154
48601530790,-0.288051217794418,-9.77804946899414,-0.541818380355835,0.03751245513558388,0.031741924583911896,-0.08446997404098511
49049667596,-0.321024537086487,-9.6411075592041,-0.518073260784149,-0.008889547549188137,-0.030591940507292747,-0.07795067131519318
49059147834,-0.346633046865463,-9.67453002929688,-0.515886843204498,-0.018895456567406654,-0.02013639733195305,-0.08180499821901321
49069120645,-0.356183797121048,-9.71703338623047,-0.522476673126221,-0.023128539323806763,-0.0033419174142181873,-0.0780927762389183
49078209161,-0.357244253158569,-9.7568531036377,-0.527820944786072,-0.022352267056703568,0.013828362338244915,-0.06852339208126068
49089187860,-0.348651885986328,-9.74942493438721,-0.529625833034515,-0.019425027072429657,0.023766212165355682,-0.05675607919692993
49099238872,-0.335462927818298,-9.73898887634277,-0.528372466564179,-0.016983872279524803,0.021395275369286537,-0.046679433435201645
49111027002,-0.322469741106033,-9.70060920715332,-0.522200405597687,-0.01586185023188591,0.007371292915195227,-0.040768418461084366
49117848396,-0.329058766365051,-9.6645097732544,-0.509917020797729,-0.015148796141147614,-0.011940542608499527,-0.03930794075131416
49171893835,-0.326516956090927,-9.7464771270752,-0.534261465072632,-0.007207249756902456,0.01818191632628441,-0.037985559552907944
49721485614,-0.335087716579437,-9.73062992095947,-0.532053172588348,0.0036490776110440493,-0.023163320496678352,-0.040428392589092255
50038133621,-0.350304037332535,-9.68648719787598,-0.501140117645264,-0.037778351455926895,-0.00863607693463564,-0.033083707094192505
50052293300,-0.351260483264923,-9.69087886810303,-0.496451079845428,-0.03476551175117493,-0.007530471310019493,-0.03060734272003174
50057728767,-0.356467217206955,-9.7064151763916,-0.487175732851028,-0.03139535337686539,-0.005484741646796465,-0.026637379080057144
50067085266,-0.34057143330574,-9.70573616027832,-0.483173221349716,-0.02800762467086315,-0.0026375099550932646,-0.02210974507033825
50078468322,-0.322308659553528,-9.71449947357178,-0.482086092233658,-0.024810515344142914,-0.00018260595970787108,-0.01768677309155464
50118015050,-0.32623553276062,-9.71515369415283,-0.499227821826935,-0.004064073320478201,-0.010664744302630424,-0.00650192191824317
50357266664,-0.291018009185791,-9.73472309112549,-0.482134282588959,0.05043765529990196,0.007562727201730013,-0.010617760941386223
50399608612,-0.289863497018814,-9.73777675628662,-0.485986560583115,0.04369238391518593,-0.03688235580921173,-0.001343310228548944
50409602642,-0.295987039804459,-9.75366020202637,-0.473393231630325,0.04049764201045036,-0.04418208450078964,0.00057999073760584
50418312311,-0.289216935634613,-9.75737094879151,-0.470098793506622,0.03807983919978142,-0.04820261150598526,0.002098066732287407
50428067445,-0.277924984693527,-9.7408332824707,-0.485623240470886,0.03666776418685913,-0.049918610602617264,0.002909515518695116
50439849615,-0.271436363458633,-9.73644351959229,-0.486763387918472,0.0365445576608181,-0.05044661834836006,0.0029904325492680073
50448255062,-0.27941769361496,-9.73474216461182,-0.49282231926918,0.03808346390724182,-0.050176046788692474,0.0021688828710466623
50459090471,-0.2687828540802,-9.72324562072754,-0.511783659458161,0.04131448268890381,-0.048852965235710144,8.123205770971254e-05
50487123489,-0.279835790395737,-9.68475151062012,-0.53755396604538,0.05549316108226776,-0.03380675986409187,-0.016589287668466568
51350806236,-0.335938215255737,-9.74039554595947,-0.449103772640228,0.0018525798805058002,-0.04109776392579079,0.03186822682619095
51527880191,-0.338333249092102,-9.73839282989502,-0.444525301456451,0.013361412100493908,-0.02613687515258789,0.022606251761317253
51538203477,-0.344722867012024,-9.74582099914551,-0.448447644710541,0.004409841727465391,-0.02985413931310177,0.028836006298661232
51547255516,-0.345323741436005,-9.74685668945312,-0.447707712650299,-0.003872236702591181,-0.03383353725075722,0.033053699880838394
51557087182,-0.329512864351273,-9.73333072662354,-0.457361578941345,-0.010328719392418861,-0.03784559667110443,0.034880202263593674
51569083929,-0.31654080748558,-9.71915531158447,-0.453719735145569,-0.014126247726380825,-0.04131079092621803,0.03446172922849655
51577540397,-0.313421785831451,-9.71578121185303,-0.463330805301666,-0.014561177231371403,-0.0431126169860363,0.03226439654827118
51590098381,-0.304112195968628,-9.71375942230225,-0.454051315784454,-0.011279050260782242,-0.04210815951228142,0.028944171965122223
52208109140,-0.309457778930664,-9.7063798904419,-0.470666527748108,0.008876596577465534,-0.008642945438623428,0.02124449610710144
52217911005,-0.310326099395752,-9.70841407775879,-0.458204835653305,0.01309491228312254,-0.00695270299911499,0.01816985197365284
52226998090,-0.311080038547516,-9.71920776367188,-0.464285671710968,0.01639012061059475,-0.00615292601287365,0.015134496614336967
52237208127,-0.316206753253937,-9.70605087280273,-0.460976302623749,0.018513981252908707,-0.006547950673848391,0.012887323275208473
52247407436,-0.321564555168152,-9.70975303649902,-0.467547118663788,0.01935708336532116,-0.00807945802807808,0.011889355257153511
52259328126,-0.319358110427856,-9.71685218811035,-0.455852001905441,0.018865268677473068,-0.010210475884377956,0.012067622505128384
52267273426,-0.320715844631195,-9.70402812957764,-0.46111786365509,0.01714985817670822,-0.012263010255992413,0.013042669743299484
52280894279,-0.336292058229446,-9.71182155609131,-0.447759300470352,0.014548844657838345,-0.013740163296461105,0.014499621465802193
52308029174,-0.335449784994125,-9.72394943237305,-0.454409748315811,0.003508839290589094,-0.01460194680839777,0.02094799093902111
52927528619,-0.320949554443359,-9.71047019958496,-0.466314017772675,0.004989981185644865,-0.0129276467487216,0.012065994553267956
52937593698,-0.326915949583054,-9.71148014068604,-0.465752184391022,0.00663395319133997,-0.01210219319909811,0.011117647401988506
52949109792,-0.312457740306854,-9.71214580535889,-0.46651241183281,0.008239839226007462,-0.011932654306292534,0.010345603339374065
52958191871,-0.313368380069733,-9.71249198913574,-0.460177302360535,0.009357113391160965,-0.012265069410204887,0.010015461593866348
52969763994,-0.326277732849121,-9.70842361450195,-0.476459920406342,0.010050119832158089,-0.012872513383626938,0.010231350548565388
52999684572,-0.321358323097229,-9.71485328674316,-0.460476607084274,0.011630205437541008,-0.013359101489186287,0.010953470133244991
53008339405,-0.309258460998535,-9.70910930633545,-0.466578930616379,0.012278923764824867,-0.013273971155285835,0.010668194852769375
53829887390,-0.311965107917786,-9.71923732757569,-0.463877290487289,0.01222336944192648,-0.02064920775592327,0.008828856982290745
53839301586,-0.305579215288162,-9.71348285675049,-0.467874705791473,0.014155338518321514,-0.021658996120095253,0.008246337994933128
53882816791,-0.325365155935288,-9.71552085876465,-0.464135974645615,0.018445754423737526,-0.020436717197299004,0.009276006370782852
53895397186,-0.327880352735519,-9.72126865386963,-0.461176514625549,0.01983683556318283,-0.018486810848116875,0.010189702734351158
53901033878,-0.30019536614418,-9.71347332000733,-0.474969208240509,0.019765404984354973,-0.016491655260324478,0.010965436697006226
53907419443,-0.316479176282883,-9.7091007232666,-0.473040997982025,0.018169282004237175,-0.015223056077957153,0.011461407877504826
53919900417,-0.317183554172516,-9.71652793884277,-0.463742107152939,0.015962805598974228,-0.01488395407795906,0.011434502899646759
53928035020,-0.297721475362778,-9.71280479431152,-0.468337208032608,0.014223006553947926,-0.015153218060731888,0.010831216350197792
53940340995,-0.321832746267319,-9.70942974090576,-0.476066917181015,0.013594486750662327,-0.01561669446527958,0.00995557475835085
55487028837,-0.323537170886993,-9.71855354309082,-0.466757327318192,0.011177639476954937,-0.016055958345532417,0.005150842946022749
55496939182,-0.32837849855423,-9.71349334716797,-0.469972550868988,0.011356813833117485,-0.01711740531027317,0.005495878402143717
55506577968,-0.319589823484421,-9.71517086029053,-0.470374375581741,0.010504743084311485,-0.01818224973976612,0.006280949804931879
55517930507,-0.324351608753204,-9.71043968200684,-0.473213255405426,0.008824077434837818,-0.0188301932066679,0.0072637321427464485
55526625394,-0.315621703863144,-9.72089958190918,-0.4698885679245,0.00696002971380949,-0.0188563521951437,0.008068098686635494
55536607980,-0.317961066961289,-9.70303535461426,-0.467989534139633,0.0056655448861420155,-0.018329834565520287,0.00843112450093031
55617442607,-0.324224144220352,-9.71180438995362,-0.469325393438339,0.010420137085020542,-0.016224168241024017,0.00835819635540247
56697411298,-0.321064740419388,-9.73745441436768,-0.468450307846069,0.03245824575424194,-0.046082738786935806,-0.01794404163956642
56768821001,-0.343241751194,-9.72566413879395,-0.468795508146286,-0.014716069214046001,-0.026017408818006516,0.01780579425394535
56776437997,-0.3335220515728,-9.71114253997803,-0.471215516328812,-0.014772810973227024,-0.023392077535390854,0.01842604950070381
56788741588,-0.33433473110199,-9.72564601898194,-0.473331242799759,-0.013470211066305637,-0.02166416496038437,0.017104225233197212
56797393798,-0.336454808712006,-9.71619606018066,-0.484958469867706,-0.01142865139991045,-0.02074228785932064,0.014325877651572227
56808128833,-0.323625683784485,-9.7111177444458,-0.478947103023529,-0.00915067084133625,-0.020437126979231834,0.010632974095642567
57496529579,-0.330776900053024,-9.70233345031738,-0.481378138065338,0.004128897096961737,-0.015557936392724514,-0.0049943700432777405
57509425401,-0.321425646543503,-9.70838737487793,-0.494223922491074,0.005226280074566603,-0.014514559879899025,-0.008293877355754375
57665066242,-0.351678729057312,-9.6969165802002,-0.481804072856903,-0.009444410912692547,-0.015569052658975124,-0.009455437771975994
57668490171,-0.35246878862381,-9.69489192962647,-0.479411572217941,-0.01434774324297905,-0.019735801964998245,-0.008853856474161148
57676821231,-0.351750493049622,-9.70503425598145,-0.47390228509903,-0.01808030717074871,-0.02001110464334488,-0.007450907491147518
57756407976,-0.324391901493073,-9.71108627319336,-0.475129157304764,-0.006459669675678015,-0.031644515693187714,-0.0037956791929900646
58056237936,-0.337715595960617,-9.73508167266846,-0.486257404088974,0.02519252337515354,-0.01693182997405529,-0.014729326590895653
58241225957,-0.357758969068527,-9.71315574645996,-0.477240085601807,-0.030985243618488312,-0.012568374164402485,-0.009314618073403835
58467023849,-0.298037171363831,-9.68378448486328,-0.482311367988586,-0.016002962365746498,-0.02226981148123741,0.034619640558958054
58477588415,-0.282219529151917,-9.68746662139893,-0.49444580078125,-0.0055153146386146545,-0.018619947135448456,0.030640805140137672
58487653017,-0.2749003469944,-9.6759786605835,-0.499853312969208,0.007711258251219988,-0.012502990663051605,0.022068915888667107
58713338375,-0.278937548398972,-9.69893550872803,-0.483367264270782,-0.0013692007632926106,-0.011461867950856686,0.021343711763620377
58930416584,-0.287359863519669,-9.71276473999023,-0.48457857966423,0.03583565354347229,-0.010026966221630573,-0.0004631151969078928
58956511020,-0.313436508178711,-9.70470523834229,-0.459925025701523,0.026608332991600037,-0.014655056409537792,0.004028351046144962
58997223854,-0.336679011583328,-9.73340129852295,-0.460116147994995,0.007797119673341513,-0.01929846592247486,0.012267271988093853
59058300733,-0.303297579288483,-9.71717357635498,-0.482041567564011,-0.0036206573713570833,-0.03031255304813385,0.01597963459789753
59157338380,-0.333659827709198,-9.71551418304444,-0.470451682806015,0.024884367361664772,-0.019685449078679085,0.0010994235053658485
59367865800,-0.336924999952316,-9.72836017608643,-0.463438212871552,0.01993686333298683,-0.012329216115176678,0.004280646797269583
59382879972,-0.33467647433281,-9.72194862365723,-0.470574378967285,0.01568535715341568,-0.014487187378108501,0.006244276184588671
59387399911,-0.34155011177063,-9.72294807434082,-0.4711594581604,0.010419143363833427,-0.017627179622650146,0.007933638989925385
59440407514,-0.314650624990463,-9.70641040802002,-0.470170229673386,-0.006577485240995884,-0.02176627703011036,0.005841947626322508
59449688673,-0.303915023803711,-9.71584510803223,-0.481976807117462,-0.0031578850466758013,-0.01865801215171814,0.004628486931324005
59458518266,-0.294456571340561,-9.71045017242432,-0.477702647447586,0.0021653694566339254,-0.015631843358278275,0.004057516343891621
59507510662,-0.311175018548966,-9.71786117553711,-0.479867964982987,0.02647717297077179,-0.013768644072115421,0.00011206092312932014
59852591037,-0.318133533000946,-9.71413516998291,-0.479374468326569,0.0014974470250308514,-0.013164247386157513,0.009075751528143883
59862516641,-0.325470238924027,-9.70705413818359,-0.474341154098511,0.0023903052788227797,-0.014363006688654423,0.0076577551662921906
59866973638,-0.3244409263134,-9.70806884765625,-0.483844667673111,0.003847392974421382,-0.014806510880589485,0.0055054607801139355
59878013134,-0.319165766239166,-9.71146774291992,-0.471624076366425,0.0054597752168774605,-0.014398650266230106,0.0030682424549013376
59887534618,-0.32178670167923,-9.69558620452881,-0.472516298294067,0.006762606557458639,-0.013350618071854115,0.0009488193900324404
59897407293,-0.319572418928146,-9.70570755004883,-0.478975981473923,0.007585352752357721,-0.011880364269018173,-0.0002914860669989139
59907083988,-0.32291179895401,-9.70943832397461,-0.477668166160583,0.00800513755530119,-0.010132543742656708,-0.00044743463513441384
59917043209,-0.3370381295681,-9.70538425445557,-0.474615126848221,0.008074293844401836,-0.008419645950198174,0.00016922091890592128
59928089618,-0.326255559921265,-9.71415901184082,-0.475130915641785,0.007603226695209742,-0.0072418926283717155,0.0010456107556819916
59937029600,-0.328239560127258,-9.70809078216553,-0.470347225666046,0.006351407151669264,-0.006990471854805946,0.0018588003003969789
60628527402,-0.333814769983292,-9.707763671875,-0.467009514570236,0.008733225055038929,-0.01324733067303896,0.005554582457989454
60648137807,-0.320657700300217,-9.71146106719971,-0.471986353397369,0.008185234852135181,-0.013455566950142384,0.0060409423895180225
60661552667,-0.325963139533997,-9.70977973937988,-0.468557745218277,0.007723277434706688,-0.013582266867160797,0.007078702095896006
60817371606,-0.317018091678619,-9.7064037322998,-0.469054639339447,0.009944194927811623,-0.016628025099635124,0.004340724088251591
61047583818,-0.332735151052475,-9.71716976165772,-0.484032362699509,0.01207678485661745,-0.021143101155757904,-0.000747733167372644
61052014589,-0.320287942886353,-9.71752834320069,-0.473812311887741,0.011313008144497871,-0.01976388320326805,-0.00195673736743629
61058242797,-0.308656603097916,-9.71077823638916,-0.480838179588318,0.009558653458952904,-0.01791897602379322,-0.0026075479108840227
61068367958,-0.323212951421738,-9.70975208282471,-0.486534893512726,0.007572756614536047,-0.016347426921129227,-0.0026977728120982647
61077186346,-0.322443544864655,-9.71920776367188,-0.480164498090744,0.006386854220181704,-0.01534315012395382,-0.0024896501563489437
61119204998,-0.314907371997833,-9.71953010559082,-0.486394852399826,0.009311886504292488,-0.015572081319987774,-0.0023346729576587677
61361068010,-0.330421060323715,-9.72157096862793,-0.477930009365082,0.009298133663833141,-0.019095895811915398,0.0053454251028597355
61371101379,-0.334586262702942,-9.71114730834961,-0.47265487909317,0.01010463759303093,-0.01820160634815693,0.005016169045120478
61378585100,-0.329151153564453,-9.71586704254151,-0.46614333987236,0.00980306975543499,-0.017482537776231766,0.00448194332420826
61389172792,-0.336825370788574,-9.71149730682373,-0.460934162139893,0.007933752611279488,-0.017072591930627823,0.004113346338272095
61399122714,-0.345801651477814,-9.71991634368897,-0.475075423717499,0.00468953512609005,-0.016889767721295357,0.004452446009963751
61408315181,-0.328570872545242,-9.71417236328125,-0.466174483299255,0.0006312805344350636,-0.016863424330949783,0.005679083988070488
61417826414,-0.329169899225235,-9.71148300170898,-0.468416005373001,-0.0034448024816811085,-0.016984766349196434,0.007395857945084572
61427757024,-0.324818402528763,-9.69696140289307,-0.473374277353287,-0.006485716439783573,-0.017070407047867775,0.008994766511023045
62206945180,-0.321281850337982,-9.70133876800537,-0.470720142126083,0.006907099857926369,-0.015402267687022686,0.007680569309741259
62218849420,-0.324366629123688,-9.72462463378906,-0.461742550134659,0.007998380810022354,-0.016253117471933365,0.006883100140839815
62228462457,-0.319272518157959,-9.71280193328858,-0.471831619739532,0.00860334187746048,-0.016247203573584557,0.0066153728403151035
62237641572,-0.310318678617477,-9.7067289352417,-0.471853077411652,0.008746032603085041,-0.01579313725233078,0.006987790111452341
62247358798,-0.320226967334747,-9.70976448059082,-0.47219642996788,0.008779173716902733,-0.015286492183804512,0.0077420673333108425
62257819652,-0.323260694742203,-9.70505523681641,-0.472559124231339,0.009097825735807419,-0.014715285040438175,0.008374257013201714
62268264532,-0.307007491588593,-9.71279335021973,-0.471985429525375,0.009743742644786835,-0.01391648780554533,0.008506535552442074
62687055587,-0.315794825553894,-9.72092533111572,-0.461616545915604,0.015196769498288631,-0.015168095007538795,0.005701520014554262
63027266263,-0.301637053489685,-9.71516704559326,-0.471536248922348,0.021728262305259705,-0.01802251860499382,0.005699542351067066
63097326993,-0.312837421894073,-9.7077522277832,-0.470040380954742,0.018721502274274826,-0.017587658017873764,0.0038794265128672123
63107343912,-0.30938982963562,-9.70908832550049,-0.473581582307816,0.01634410209953785,-0.017049038782715797,0.0031375254038721323
63123163223,-0.320650637149811,-9.71312713623047,-0.480690032243729,0.014416585676372051,-0.016592836007475853,0.002896866062656045
63137314319,-0.324488490819931,-9.71990776062012,-0.468021214008331,0.01325204223394394,-0.015942391008138657,0.0030877890530973673
63142153263,-0.317485451698303,-9.71313381195069,-0.477649450302124,0.012622256763279438,-0.01528141275048256,0.0034335132222622633
63227274894,-0.30781751871109,-9.71583461761475,-0.473688125610352,0.021369650959968567,-0.017146632075309753,0.005073648877441883
63239026308,-0.311786681413651,-9.71818542480469,-0.485698938369751,0.021732959896326065,-0.018262039870023727,0.003740286687389016
63248684406,-0.318092584609985,-9.70267772674561,-0.474436640739441,0.02185273915529251,-0.018896223977208138,0.002349019283428788
63258433103,-0.310294926166534,-9.71212577819824,-0.477588504552841,0.02155524678528309,-0.018837234005331993,0.0010742835002020001
64276726722,-0.324387818574905,-9.71111392974854,-0.472534716129303,0.009550853632390499,-0.011489540338516235,0.007970461621880531
64287214994,-0.313128888607025,-9.72158432006836,-0.473208069801331,0.007134577725082636,-0.01142126601189375,0.006712923292070627
64298814296,-0.316641241312027,-9.71280956268311,-0.471143007278442,0.005519280210137367,-0.012171038426458836,0.005741039756685495
64306689023,-0.315779000520706,-9.71347618103027,-0.476573675870895,0.005184182897210121,-0.013667704537510872,0.00517426198348403
64606836795,-0.306138128042221,-9.71650505065918,-0.478563934564591,0.011727631092071533,-0.017194027081131935,0.005411270074546337
65066107034,-0.315670728683472,-9.71179962158203,-0.470873564481735,0.009893245063722134,-0.014040159061551094,0.008717025630176067
65077525615,-0.322916775941849,-9.70773887634277,-0.483448565006256,0.009493760764598846,-0.014886566437780857,0.007840176112949848
65397023916,-0.310888797044754,-9.71145153045654,-0.475476264953613,0.012890564277768135,-0.017146408557891846,0.002950890688225627
65407037019,-0.324375540018082,-9.71483612060547,-0.473333418369293,0.012263108976185322,-0.017173245549201965,0.0033672114368528128
65416548728,-0.319238096475601,-9.71584510803223,-0.474087417125702,0.011768797412514687,-0.017132779583334923,0.003914680797606707
65426707983,-0.316534221172333,-9.71483993530273,-0.465370625257492,0.011431334540247917,-0.01703108474612236,0.004338287748396397
65436601877,-0.314404428005219,-9.71282386779785,-0.46616718173027,0.011152997612953186,-0.016933484002947807,0.004733833018690348
65446341991,-0.30666583776474,-9.70976066589355,-0.478165328502655,0.011061372235417366,-0.016842855140566826,0.0053650978952646255
65461779832,-0.319980680942535,-9.72834205627441,-0.462343543767929,0.011448757722973824,-0.016711927950382233,0.006276092957705259
65467967987,-0.327003628015518,-9.71111679077148,-0.475166916847229,0.012335697188973427,-0.016670575365424156,0.007234598975628614
65476905584,-0.319312959909439,-9.70773315429688,-0.479114294052124,0.013172201812267303,-0.01691855676472187,0.007945515215396881
65490489482,-0.319374948740006,-9.71314144134522,-0.474414587020874,0.013252888806164265,-0.017286721616983414,0.008077328093349934
65697615623,-0.316119968891144,-9.70302200317383,-0.474445194005966,0.01560994889587164,-0.017756706103682518,0.0031796752009540796
66415118932,-0.315655916929245,-9.70065402984619,-0.472205877304077,0.010031454265117645,-0.01115696132183075,0.005602753721177578
66424369096,-0.312634289264679,-9.70300388336182,-0.477236419916153,0.01102482620626688,-0.010925620794296265,0.0064457193948328495
66427121162,-0.320224553346634,-9.72192096710205,-0.472117125988007,0.012361688539385796,-0.010944975540041924,0.006649772636592388
66557102203,-0.313024908304215,-9.70740604400635,-0.46920445561409,0.009339217096567154,-0.012336778454482555,0.005971700884401798
66566690683,-0.321741312742233,-9.71348094940186,-0.471759021282196,0.010819204151630402,-0.011819579638540745,0.006144002545624971
66576883077,-0.312530010938644,-9.71247100830078,-0.471109986305237,0.012825419194996357,-0.011304115876555443,0.006327930837869644
66586441278,-0.326764315366745,-9.71617794036865,-0.472433686256409,0.014533670619130135,-0.011072300374507904,0.006485028192400932
66597827911,-0.316788345575333,-9.71551704406738,-0.471583753824234,0.015227412804961205,-0.011451907455921173,0.00658327154815197
66606619358,-0.321874618530273,-9.70977687835694,-0.472673863172531,0.014648583717644215,-0.01251775212585926,0.006587262265384197
66618313789,-0.315965265035629,-9.72325325012207,-0.483270674943924,0.01308631431311369,-0.014018754474818707,0.006430637091398239
66634119749,-0.311527222394943,-9.72157859802246,-0.470826953649521,0.01124753337353468,-0.01564379781484604,0.005958456080406904
66637138605,-0.316494017839432,-9.71178722381592,-0.477216213941574,0.009947835467755795,-0.017270609736442566,0.005073482170701027
66646911621,-0.31506872177124,-9.72393226623535,-0.47895348072052,0.00971288327127695,-0.01880190521478653,0.003921980503946543
66659553050,-0.323308408260345,-9.70605945587158,-0.47408053278923,0.010475220158696175,-0.019995946437120438,0.0027667072135955095
66935180425,-0.318030297756195,-9.70673847198487,-0.469458848237991,0.013300548307597637,-0.011660086922347546,0.00482289120554924
66942178964,-0.322948932647705,-9.71652126312256,-0.472134441137314,0.012152529321610928,-0.0130528025329113,0.005210800562053919
68077302455,-0.313523352146149,-9.71179866790772,-0.46699458360672,0.013199723325669765,-0.015060944482684135,0.008719381876289845
68087921380,-0.318496644496918,-9.71854591369629,-0.472871035337448,0.011568895541131496,-0.015167120844125748,0.008198884315788746
68306337118,-0.317364513874054,-9.70978546142578,-0.466931223869324,0.01227638591080904,-0.015989985316991806,0.0043157110922038555
68317519426,-0.30083891749382,-9.71684741973877,-0.471739143133164,0.012460287660360336,-0.014723188243806362,0.005154406651854515
68327788352,-0.320611298084259,-9.71481800079346,-0.475795060396195,0.013103382661938667,-0.013639119453728199,0.006326889619231224
68337543725,-0.324681371450424,-9.72056579589844,-0.472162187099457,0.014122284948825836,-0.013209848664700985,0.007399314548820257
69757837533,-0.320707082748413,-9.72394180297852,-0.469430148601532,0.009158364497125149,-0.0150228850543499,0.005765349604189396
69937183618,-0.316595435142517,-9.70874309539795,-0.477606862783432,0.016525451093912125,-0.015055862255394459,0.005031030625104904
69948751688,-0.311890721321106,-9.7165060043335,-0.48118931055069,0.01640964113175869,-0.013816744089126587,0.005310521461069584
70277653217,-0.315562725067139,-9.70807075500488,-0.480247437953949,0.014498207718133926,-0.01529675256460905,0.006432997994124889
70287630796,-0.31749764084816,-9.72427845001221,-0.47479385137558,0.014313149265944958,-0.014271602034568787,0.005901824217289686
70427277088,-0.313488453626633,-9.70774269104004,-0.466880708932877,0.014997546561062336,-0.015240068547427654,0.0006710513844154775
70556900024,-0.314092844724655,-9.71517276763916,-0.470490574836731,0.013398916460573673,-0.015763014554977417,0.005483797751367092
70738738775,-0.309447854757309,-9.71954917907715,-0.477263569831848,0.013080297969281673,-0.014565857127308846,0.004634425975382328
70747478723,-0.305749744176865,-9.71279716491699,-0.472840666770935,0.012315732426941395,-0.015174606814980507,0.0040217055939137936
70827371120,-0.320899903774261,-9.70099544525147,-0.468187302350998,0.013928469270467758,-0.014486389234662056,0.009368602186441422
71507042646,-0.315401941537857,-9.71222972869873,-0.477976262569427,0.011813107877969742,-0.0181659497320652,0.005303463898599148
71517983913,-0.311875849962235,-9.72201728820801,-0.480402916669846,0.01071205735206604,-0.018666839227080345,0.0047926693223416805
71619184255,-0.320239633321762,-9.71123123168945,-0.473177433013916,0.012546670623123646,-0.01135799940675497,0.004830198362469673
71886545896,-0.311868816614151,-9.70213890075684,-0.463798642158508,0.010294465348124504,-0.013619939796626568,0.007625425234436989
72027114629,-0.31297892332077,-9.70650768280029,-0.470980077981949,0.014643854461610317,-0.018330633640289307,0.0027171417605131865
72187411069,-0.308607667684555,-9.70774173736572,-0.473122626543045,0.01429577637463808,-0.018975434824824333,0.004733961075544357
72199747800,-0.32001119852066,-9.71382236480713,-0.472011685371399,0.014766719192266464,-0.018589796498417854,0.005203603766858578
72207702875,-0.318208277225494,-9.70741367340088,-0.468303680419922,0.014889922924339771,-0.0176234170794487,0.005231273360550404
72217969179,-0.315474301576614,-9.70875835418701,-0.466796100139618,0.014646325260400772,-0.01619632914662361,0.005117470398545265
72228080034,-0.323105752468109,-9.70506572723389,-0.46881315112114,0.014029386453330517,-0.014535151422023773,0.005300208460539579
72956617116,-0.297912687063217,-9.71516513824463,-0.468168318271637,0.013041212223470211,-0.016861220821738243,0.004367460962384939
73136893987,-0.355351954698563,-9.73983573913574,-0.450245887041092,-0.029872450977563858,-0.016798915341496468,0.014550465159118176
73145942211,-0.347617536783218,-9.72193813323975,-0.453737884759903,-0.03217139467597008,-0.023495521396398544,0.01956571638584137
73156943321,-0.332314401865006,-9.70236206054688,-0.459356963634491,-0.031051579862833023,-0.029990701004862785,0.023161757737398148
73170591592,-0.307519167661667,-9.70064735412598,-0.474039793014526,-0.02742401324212551,-0.034148458391427994,0.025194650515913963
73177106380,-0.286148011684418,-9.70669364929199,-0.485191732645035,-0.021411258727312088,-0.0340534932911396,0.02519340068101883
73187413215,-0.278713226318359,-9.70434665679932,-0.487222254276276,-0.012447674758732319,-0.029394512996077538,0.022563926875591278
73266121387,-0.335083842277527,-9.71216678619385,-0.468575209379196,0.04720240831375122,-0.03110974095761776,-0.015344269573688507
74308014869,-0.328975439071655,-9.70874977111816,-0.469276994466782,-0.012696096673607826,-0.0034823219757527113,0.006303778849542141
74316536664,-0.327952682971954,-9.70435810089112,-0.470945477485657,-0.010658015497028828,-0.00279181613586843,0.005929464008659124
74327366590,-0.324556767940521,-9.71178817749023,-0.469853729009628,-0.008030589669942856,-0.0030964501202106476,0.006456613540649414
74876515388,-0.325533032417297,-9.7087574005127,-0.469370990991592,0.0014406600967049599,-0.028287921100854874,0.004517697263509035
75046007394,-0.296227097511292,-9.70504474639893,-0.471021831035614,0.03232898935675621,-0.011533353477716446,-0.007898754440248013
75208731651,-0.281275659799576,-9.7038049697876,-0.477675169706345,0.03290814533829689,-0.022030003368854523,0.003936351742595434
