%time,field.header.seq,field.header.stamp,field.header.frame_id,field.orientation.x,field.orientation.y,field.orientation.z,field.orientation.w,field.orientation_covariance0,field.orientation_covariance1,field.orientation_covariance2,field.orientation_covariance3,field.orientation_covariance4,field.orientation_covariance5,field.orientation_covariance6,field.orientation_covariance7,field.orientation_covariance8,field.angular_velocity.x,field.angular_velocity.y,field.angular_velocity.z,field.angular_velocity_covariance0,field.angular_velocity_covariance1,field.angular_velocity_covariance2,field.angular_velocity_covariance3,field.angular_velocity_covariance4,field.angular_velocity_covariance5,field.angular_velocity_covariance6,field.angular_velocity_covariance7,field.angular_velocity_covariance8,field.linear_acceleration.x,field.linear_acceleration.y,field.linear_acceleration.z,field.linear_acceleration_covariance0,field.linear_acceleration_covariance1,field.linear_acceleration_covariance2,field.linear_acceleration_covariance3,field.linear_acceleration_covariance4,field.linear_acceleration_covariance5,field.linear_acceleration_covariance6,field.linear_acceleration_covariance7,field.linear_acceleration_covariance8
1702252240370934725,140,2099409818,,0.0,0.0,0.0,0.0,0.0,0.0,0.0,0.0,0.0,0.0,0.0,0.0,0.0,0.0,0.0,0.0,0.0,0.0,0.0,0.0,0.0,0.0,0.0,0.0,0.0,-0.32581552863121,-9.71596813201904,-0.464090138673782,0.0,0.0,0.0,0.0,0.0,0.0,0.0,0.0,0.0
1702252240372570551,141,2110099554,,0.0,0.0,0.0,0.0,0.0,0.0,0.0,0.0,0.0,0.0,0.0,0.0,0.0,0.0,0.0,0.0,0.0,0.0,0.0,0.0,0.0,0.0,0.0,0.0,0.0,-0.33186200261116,-9.71158027648926,-0.469407916069031,0.0,0.0,0.0,0.0,0.0,0.0,0.0,0.0,0.0
1702252240374582861,142,2118725538,,0.0,0.0,0.0,0.0,0.0,0.0,0.0,0.0,0.0,0.0,0.0,0.0,0.0,0.0,0.0,0.0,0.0,0.0,0.0,0.0,0.0,0.0,0.0,0.0,0.0,-0.313864469528198,-9.70244216918945,-0.482853889465332,0.0,0.0,0.0,0.0,0.0,0.0,0.0,0.0,0.0
1702252240376047546,143,2129652738,,0.0,0.0,0.0,0.0,0.0,0.0,0.0,0.0,0.0,0.0,0.0,0.0,0.0,0.0,0.0,0.0,0.0,0.0,0.0,0.0,0.0,0.0,0.0,0.0,0.0,-0.331518322229385,-9.72439002990723,-0.473621159791946,0.0,0.0,0.0,0.0,0.0,0.0,0.0,0.0,0.0
1702252240377573769,144,2139114379,,0.0,0.0,0.0,0.0,0.0,0.0,0.0,0.0,0.0,0.0,0.0,0.0,0.0,0.0,0.0,0.0,0.0,0.0,0.0,0.0,0.0,0.0,0.0,0.0,0.0,-0.322068214416504,-9.71392726898194,-0.474729388952255,0.0,0.0,0.0,0.0,0.0,0.0,0.0,0.0,0.0
1702252240379092365,145,2149269819,,0.0,0.0,0.0,0.0,0.0,0.0,0.0,0.0,0.0,0.0,0.0,0.0,0.0,0.0,0.0,0.0,0.0,0.0,0.0,0.0,0.0,0.0,0.0,0.0,0.0,-0.325772374868393,-9.70009422302246,-0.462100178003311,0.0,0.0,0.0,0.0,0.0,0.0,0.0,0.0,0.0
1702252240380673824,146,2163099050,,0.0,0.0,0.0,0.0,0.0,0.0,0.0,0.0,0.0,0.0,0.0,0.0,0.0,0.0,0.0,0.0,0.0,0.0,0.0,0.0,0.0,0.0,0.0,0.0,0.0,-0.328170776367188,-9.71594905853272,-0.476392358541489,0.0,0.0,0.0,0.0,0.0,0.0,0.0,0.0,0.0
1702252240382164786,147,2170590877,,0.0,0.0,0.0,0.0,0.0,0.0,0.0,0.0,0.0,0.0,0.0,0.0,0.0,0.0,0.0,0.0,0.0,0.0,0.0,0.0,0.0,0.0,0.0,0.0,0.0,-0.334359854459763,-9.72304153442383,-0.475826025009155,0.0,0.0,0.0,0.0,0.0,0.0,0.0,0.0,0.0
1702252240383723765,148,2179978132,,0.0,0.0,0.0,0.0,0.0,0.0,0.0,0.0,0.0,0.0,0.0,0.0,0.0,0.0,0.0,0.0,0.0,0.0,0.0,0.0,0.0,0.0,0.0,0.0,0.0,-0.338179022073746,-9.70752716064453,-0.466803789138794,0.0,0.0,0.0,0.0,0.0,0.0,0.0,0.0,0.0
1702252240385245930,149,2189896821,,0.0,0.0,0.0,0.0,0.0,0.0,0.0,0.0,0.0,0.0,0.0,0.0,0.0,0.0,0.0,0.0,0.0,0.0,0.0,0.0,0.0,0.0,0.0,0.0,0.0,-0.338826328516007,-9.71966552734375,-0.476346671581268,0.0,0.0,0.0,0.0,0.0,0.0,0.0,0.0,0.0
1702252240386758514,150,2200297594,,0.0,0.0,0.0,0.0,0.0,0.0,0.0,0.0,0.0,0.0,0.0,0.0,0.0,0.0,0.0,0.0,0.0,0.0,0.0,0.0,0.0,0.0,0.0,0.0,0.0,-0.32875069975853,-9.70854568481445,-0.469463169574738,0.0,0.0,0.0,0.0,0.0,0.0,0.0,0.0,0.0
1702252240388281604,151,2211427450,,0.0,0.0,0.0,0.0,0.0,0.0,0.0,0.0,0.0,0.0,0.0,0.0,0.0,0.0,0.0,0.0,0.0,0.0,0.0,0.0,0.0,0.0,0.0,0.0,0.0,-0.328011602163315,-9.71594524383545,-0.480262100696564,0.0,0.0,0.0,0.0,0.0,0.0,0.0,0.0,0.0
1702252240389746410,152,2218828916,,0.0,0.0,0.0,0.0,0.0,0.0,0.0,0.0,0.0,0.0,0.0,0.0,0.0,0.0,0.0,0.0,0.0,0.0,0.0,0.0,0.0,0.0,0.0,0.0,0.0,-0.337624162435532,-9.71664905548096,-0.466276437044144,0.0,0.0,0.0,0.0,0.0,0.0,0.0,0.0,0.0
1702252240391545214,153,2228352785,,0.0,0.0,0.0,0.0,0.0,0.0,0.0,0.0,0.0,0.0,0.0,0.0,0.0,0.0,0.0,0.0,0.0,0.0,0.0,0.0,0.0,0.0,0.0,0.0,0.0,-0.325031310319901,-9.71662712097168,-0.475296437740326,0.0,0.0,0.0,0.0,0.0,0.0,0.0,0.0,0.0
1702252240393219757,154,2239343881,,0.0,0.0,0.0,0.0,0.0,0.0,0.0,0.0,0.0,0.0,0.0,0.0,0.0,0.0,0.0,0.0,0.0,0.0,0.0,0.0,0.0,0.0,0.0,0.0,0.0,-0.329851925373077,-9.70785140991211,-0.481284350156784,0.0,0.0,0.0,0.0,0.0,0.0,0.0,0.0,0.0
1702252240395692001,155,2249280214,,0.0,0.0,0.0,0.0,0.0,0.0,0.0,0.0,0.0,0.0,0.0,0.0,0.0,0.0,0.0,0.0,0.0,0.0,0.0,0.0,0.0,0.0,0.0,0.0,0.0,-0.317094713449478,-9.70987415313721,-0.477779597043991,0.0,0.0,0.0,0.0,0.0,0.0,0.0,0.0,0.0
1702252240398069245,156,2259112358,,0.0,0.0,0.0,0.0,0.0,0.0,0.0,0.0,0.0,0.0,0.0,0.0,0.0,0.0,0.0,0.0,0.0,0.0,0.0,0.0,0.0,0.0,0.0,0.0,0.0,-0.327024102210999,-9.70718955993652,-0.469831645488739,0.0,0.0,0.0,0.0,0.0,0.0,0.0,0.0,0.0
1702252240400105911,157,2269274711,,0.0,0.0,0.0,0.0,0.0,0.0,0.0,0.0,0.0,0.0,0.0,0.0,0.0,0.0,0.0,0.0,0.0,0.0,0.0,0.0,0.0,0.0,0.0,0.0,0.0,-0.322602689266205,-9.7183141708374,-0.478635489940643,0.0,0.0,0.0,0.0,0.0,0.0,0.0,0.0,0.0
1702252240401652598,158,2278861999,,0.0,0.0,0.0,0.0,0.0,0.0,0.0,0.0,0.0,0.0,0.0,0.0,0.0,0.0,0.0,0.0,0.0,0.0,0.0,0.0,0.0,0.0,0.0,0.0,0.0,-0.322405993938446,-9.71055793762207,-0.471563637256622,0.0,0.0,0.0,0.0,0.0,0.0,0.0,0.0,0.0
1702252240403264645,159,2289817571,,0.0,0.0,0.0,0.0,0.0,0.0,0.0,0.0,0.0,0.0,0.0,0.0,0.0,0.0,0.0,0.0,0.0,0.0,0.0,0.0,0.0,0.0,0.0,0.0,0.0,-0.332800209522247,-9.71428775787354,-0.463412046432495,0.0,0.0,0.0,0.0,0.0,0.0,0.0,0.0,0.0
1702252240404825369,160,2298875093,,0.0,0.0,0.0,0.0,0.0,0.0,0.0,0.0,0.0,0.0,0.0,0.0,0.0,0.0,0.0,0.0,0.0,0.0,0.0,0.0,0.0,0.0,0.0,0.0,0.0,-0.326401948928833,-9.72000217437744,-0.477715164422989,0.0,0.0,0.0,0.0,0.0,0.0,0.0,0.0,0.0
1702252240406260027,161,2311876296,,0.0,0.0,0.0,0.0,0.0,0.0,0.0,0.0,0.0,0.0,0.0,0.0,0.0,0.0,0.0,0.0,0.0,0.0,0.0,0.0,0.0,0.0,0.0,0.0,0.0,-0.329462915658951,-9.71493721008301,-0.473594576120377,0.0,0.0,0.0,0.0,0.0,0.0,0.0,0.0,0.0
1702252240407795982,162,2321419954,,0.0,0.0,0.0,0.0,0.0,0.0,0.0,0.0,0.0,0.0,0.0,0.0,0.0,0.0,0.0,0.0,0.0,0.0,0.0,0.0,0.0,0.0,0.0,0.0,0.0,-0.322870910167694,-9.72201347351074,-0.481459558010101,0.0,0.0,0.0,0.0,0.0,0.0,0.0,0.0,0.0
1702252240409324458,163,2329738378,,0.0,0.0,0.0,0.0,0.0,0.0,0.0,0.0,0.0,0.0,0.0,0.0,0.0,0.0,0.0,0.0,0.0,0.0,0.0,0.0,0.0,0.0,0.0,0.0,0.0,-0.344807207584381,-9.7206859588623,-0.476044327020645,0.0,0.0,0.0,0.0,0.0,0.0,0.0,0.0,0.0
1702252240410994716,164,2339273214,,0.0,0.0,0.0,0.0,0.0,0.0,0.0,0.0,0.0,0.0,0.0,0.0,0.0,0.0,0.0,0.0,0.0,0.0,0.0,0.0,0.0,0.0,0.0,0.0,0.0,-0.325921386480331,-9.71021366119385,-0.476741790771484,0.0,0.0,0.0,0.0,0.0,0.0,0.0,0.0,0.0
1702252240412590835,165,2349775791,,0.0,0.0,0.0,0.0,0.0,0.0,0.0,0.0,0.0,0.0,0.0,0.0,0.0,0.0,0.0,0.0,0.0,0.0,0.0,0.0,0.0,0.0,0.0,0.0,0.0,-0.330770343542099,-9.70683860778809,-0.475621819496155,0.0,0.0,0.0,0.0,0.0,0.0,0.0,0.0,0.0
1702252240414047453,166,2358711481,,0.0,0.0,0.0,0.0,0.0,0.0,0.0,0.0,0.0,0.0,0.0,0.0,0.0,0.0,0.0,0.0,0.0,0.0,0.0,0.0,0.0,0.0,0.0,0.0,0.0,-0.322926461696625,-9.71157741546631,-0.4688421189785,0.0,0.0,0.0,0.0,0.0,0.0,0.0,0.0,0.0
1702252240415741232,167,2369749546,,0.0,0.0,0.0,0.0,0.0,0.0,0.0,0.0,0.0,0.0,0.0,0.0,0.0,0.0,0.0,0.0,0.0,0.0,0.0,0.0,0.0,0.0,0.0,0.0,0.0,-0.324816852807999,-9.71729946136475,-0.474035173654556,0.0,0.0,0.0,0.0,0.0,0.0,0.0,0.0,0.0
1702252240417284577,168,2379433155,,0.0,0.0,0.0,0.0,0.0,0.0,0.0,0.0,0.0,0.0,0.0,0.0,0.0,0.0,0.0,0.0,0.0,0.0,0.0,0.0,0.0,0.0,0.0,0.0,0.0,-0.327776879072189,-9.71799755096436,-0.468067914247513,0.0,0.0,0.0,0.0,0.0,0.0,0.0,0.0,0.0
1702252240418890435,169,2388985157,,0.0,0.0,0.0,0.0,0.0,0.0,0.0,0.0,0.0,0.0,0.0,0.0,0.0,0.0,0.0,0.0,0.0,0.0,0.0,0.0,0.0,0.0,0.0,0.0,0.0,-0.324989408254623,-9.70448303222656,-0.477506726980209,0.0,0.0,0.0,0.0,0.0,0.0,0.0,0.0,0.0
1702252240420562590,170,2399699449,,0.0,0.0,0.0,0.0,0.0,0.0,0.0,0.0,0.0,0.0,0.0,0.0,0.0,0.0,0.0,0.0,0.0,0.0,0.0,0.0,0.0,0.0,0.0,0.0,0.0,-0.324059128761292,-9.70852661132812,-0.471392035484314,0.0,0.0,0.0,0.0,0.0,0.0,0.0,0.0,0.0
1702252240421994015,171,2412773132,,0.0,0.0,0.0,0.0,0.0,0.0,0.0,0.0,0.0,0.0,0.0,0.0,0.0,0.0,0.0,0.0,0.0,0.0,0.0,0.0,0.0,0.0,0.0,0.0,0.0,-0.314770698547363,-9.71190357208252,-0.475674510002136,0.0,0.0,0.0,0.0,0.0,0.0,0.0,0.0,0.0
1702252240424066095,172,2420931816,,0.0,0.0,0.0,0.0,0.0,0.0,0.0,0.0,0.0,0.0,0.0,0.0,0.0,0.0,0.0,0.0,0.0,0.0,0.0,0.0,0.0,0.0,0.0,0.0,0.0,-0.325543612241745,-9.68828201293945,-0.474983364343643,0.0,0.0,0.0,0.0,0.0,0.0,0.0,0.0,0.0
1702252240426302132,173,2430458784,,0.0,0.0,0.0,0.0,0.0,0.0,0.0,0.0,0.0,0.0,0.0,0.0,0.0,0.0,0.0,0.0,0.0,0.0,0.0,0.0,0.0,0.0,0.0,0.0,0.0,-0.320618659257889,-9.70649528503418,-0.476214706897736,0.0,0.0,0.0,0.0,0.0,0.0,0.0,0.0,0.0
1702252240428639479,174,2440390348,,0.0,0.0,0.0,0.0,0.0,0.0,0.0,0.0,0.0,0.0,0.0,0.0,0.0,0.0,0.0,0.0,0.0,0.0,0.0,0.0,0.0,0.0,0.0,0.0,0.0,-0.332790166139603,-9.70619201660156,-0.466895937919617,0.0,0.0,0.0,0.0,0.0,0.0,0.0,0.0,0.0
1702252240430723941,175,2449069023,,0.0,0.0,0.0,0.0,0.0,0.0,0.0,0.0,0.0,0.0,0.0,0.0,0.0,0.0,0.0,0.0,0.0,0.0,0.0,0.0,0.0,0.0,0.0,0.0,0.0,-0.329260855913162,-9.71291255950928,-0.474900245666504,0.0,0.0,0.0,0.0,0.0,0.0,0.0,0.0,0.0
1702252240432431816,176,2460771083,,0.0,0.0,0.0,0.0,0.0,0.0,0.0,0.0,0.0,0.0,0.0,0.0,0.0,0.0,0.0,0.0,0.0,0.0,0.0,0.0,0.0,0.0,0.0,0.0,0.0,-0.330128610134125,-9.70987892150879,-0.472612023353577,0.0,0.0,0.0,0.0,0.0,0.0,0.0,0.0,0.0
1702252240434069124,177,2469503164,,0.0,0.0,0.0,0.0,0.0,0.0,0.0,0.0,0.0,0.0,0.0,0.0,0.0,0.0,0.0,0.0,0.0,0.0,0.0,0.0,0.0,0.0,0.0,0.0,0.0,-0.329850345849991,-9.71292304992676,-0.469973087310791,0.0,0.0,0.0,0.0,0.0,0.0,0.0,0.0,0.0
1702252240435682952,178,2479860544,,0.0,0.0,0.0,0.0,0.0,0.0,0.0,0.0,0.0,0.0,0.0,0.0,0.0,0.0,0.0,0.0,0.0,0.0,0.0,0.0,0.0,0.0,0.0,0.0,0.0,-0.327664196491241,-9.71190452575684,-0.470639526844025,0.0,0.0,0.0,0.0,0.0,0.0,0.0,0.0,0.0
1702252240437487340,179,2489649534,,0.0,0.0,0.0,0.0,0.0,0.0,0.0,0.0,0.0,0.0,0.0,0.0,0.0,0.0,0.0,0.0,0.0,0.0,0.0,0.0,0.0,0.0,0.0,0.0,0.0,-0.336874186992645,-9.71630191802979,-0.468854427337646,0.0,0.0,0.0,0.0,0.0,0.0,0.0,0.0,0.0
1702252240439094721,180,2498728275,,0.0,0.0,0.0,0.0,0.0,0.0,0.0,0.0,0.0,0.0,0.0,0.0,0.0,0.0,0.0,0.0,0.0,0.0,0.0,0.0,0.0,0.0,0.0,0.0,0.0,-0.322611182928085,-9.70854568481445,-0.466791778802872,0.0,0.0,0.0,0.0,0.0,0.0,0.0,0.0,0.0
1702252240440742441,181,2508545160,,0.0,0.0,0.0,0.0,0.0,0.0,0.0,0.0,0.0,0.0,0.0,0.0,0.0,0.0,0.0,0.0,0.0,0.0,0.0,0.0,0.0,0.0,0.0,0.0,0.0,-0.334862560033798,-9.71427154541016,-0.473108321428299,0.0,0.0,0.0,0.0,0.0,0.0,0.0,0.0,0.0
1702252240442325539,182,2522900342,,0.0,0.0,0.0,0.0,0.0,0.0,0.0,0.0,0.0,0.0,0.0,0.0,0.0,0.0,0.0,0.0,0.0,0.0,0.0,0.0,0.0,0.0,0.0,0.0,0.0,-0.325514227151871,-9.71798706054688,-0.472445785999298,0.0,0.0,0.0,0.0,0.0,0.0,0.0,0.0,0.0
1702252240444072853,183,2530849456,,0.0,0.0,0.0,0.0,0.0,0.0,0.0,0.0,0.0,0.0,0.0,0.0,0.0,0.0,0.0,0.0,0.0,0.0,0.0,0.0,0.0,0.0,0.0,0.0,0.0,-0.337958991527557,-9.70888233184815,-0.472677230834961,0.0,0.0,0.0,0.0,0.0,0.0,0.0,0.0,0.0
1702252240445978174,184,2538771152,,0.0,0.0,0.0,0.0,0.0,0.0,0.0,0.0,0.0,0.0,0.0,0.0,0.0,0.0,0.0,0.0,0.0,0.0,0.0,0.0,0.0,0.0,0.0,0.0,0.0,-0.330380976200104,-9.71764183044434,-0.469217121601105,0.0,0.0,0.0,0.0,0.0,0.0,0.0,0.0,0.0
1702252240447726437,185,2549550294,,0.0,0.0,0.0,0.0,0.0,0.0,0.0,0.0,0.0,0.0,0.0,0.0,0.0,0.0,0.0,0.0,0.0,0.0,0.0,0.0,0.0,0.0,0.0,0.0,0.0,-0.336947321891785,-9.71190357208252,-0.469608426094055,0.0,0.0,0.0,0.0,0.0,0.0,0.0,0.0,0.0
1702252240449395777,186,2559360742,,0.0,0.0,0.0,0.0,0.0,0.0,0.0,0.0,0.0,0.0,0.0,0.0,0.0,0.0,0.0,0.0,0.0,0.0,0.0,0.0,0.0,0.0,0.0,0.0,0.0,-0.32612669467926,-9.70987796783447,-0.477799415588379,0.0,0.0,0.0,0.0,0.0,0.0,0.0,0.0,0.0
1702252240451149548,187,2570082187,,0.0,0.0,0.0,0.0,0.0,0.0,0.0,0.0,0.0,0.0,0.0,0.0,0.0,0.0,0.0,0.0,0.0,0.0,0.0,0.0,0.0,0.0,0.0,0.0,0.0,-0.332672208547592,-9.70684337615967,-0.476237773895264,0.0,0.0,0.0,0.0,0.0,0.0,0.0,0.0,0.0
1702252240453147330,188,2580030679,,0.0,0.0,0.0,0.0,0.0,0.0,0.0,0.0,0.0,0.0,0.0,0.0,0.0,0.0,0.0,0.0,0.0,0.0,0.0,0.0,0.0,0.0,0.0,0.0,0.0,-0.318728178739548,-9.70886611938477,-0.477250516414642,0.0,0.0,0.0,0.0,0.0,0.0,0.0,0.0,0.0
1702252240455252753,189,2590325593,,0.0,0.0,0.0,0.0,0.0,0.0,0.0,0.0,0.0,0.0,0.0,0.0,0.0,0.0,0.0,0.0,0.0,0.0,0.0,0.0,0.0,0.0,0.0,0.0,0.0,-0.327899307012558,-9.71528244018555,-0.473158568143845,0.0,0.0,0.0,0.0,0.0,0.0,0.0,0.0,0.0
1702252240457203185,190,2600124597,,0.0,0.0,0.0,0.0,0.0,0.0,0.0,0.0,0.0,0.0,0.0,0.0,0.0,0.0,0.0,0.0,0.0,0.0,0.0,0.0,0.0,0.0,0.0,0.0,0.0,-0.32326340675354,-9.70381546020508,-0.472469806671143,0.0,0.0,0.0,0.0,0.0,0.0,0.0,0.0,0.0
1702252240459654506,191,2609019994,,0.0,0.0,0.0,0.0,0.0,0.0,0.0,0.0,0.0,0.0,0.0,0.0,0.0,0.0,0.0,0.0,0.0,0.0,0.0,0.0,0.0,0.0,0.0,0.0,0.0,-0.326945394277573,-9.71865177154541,-0.473307996988297,0.0,0.0,0.0,0.0,0.0,0.0,0.0,0.0,0.0
1702252240462304485,192,2620734214,,0.0,0.0,0.0,0.0,0.0,0.0,0.0,0.0,0.0,0.0,0.0,0.0,0.0,0.0,0.0,0.0,0.0,0.0,0.0,0.0,0.0,0.0,0.0,0.0,0.0,-0.330584079027176,-9.70886135101319,-0.475709974765778,0.0,0.0,0.0,0.0,0.0,0.0,0.0,0.0,0.0
1702252240464170229,193,2628793001,,0.0,0.0,0.0,0.0,0.0,0.0,0.0,0.0,0.0,0.0,0.0,0.0,0.0,0.0,0.0,0.0,0.0,0.0,0.0,0.0,0.0,0.0,0.0,0.0,0.0,-0.324408620595932,-9.72574138641358,-0.471538990736008,0.0,0.0,0.0,0.0,0.0,0.0,0.0,0.0,0.0
1702252240465649815,194,2638845205,,0.0,0.0,0.0,0.0,0.0,0.0,0.0,0.0,0.0,0.0,0.0,0.0,0.0,0.0,0.0,0.0,0.0,0.0,0.0,0.0,0.0,0.0,0.0,0.0,0.0,-0.328320413827896,-9.72000694274902,-0.471047878265381,0.0,0.0,0.0,0.0,0.0,0.0,0.0,0.0,0.0
1702252240467142086,195,2648612260,,0.0,0.0,0.0,0.0,0.0,0.0,0.0,0.0,0.0,0.0,0.0,0.0,0.0,0.0,0.0,0.0,0.0,0.0,0.0,0.0,0.0,0.0,0.0,0.0,0.0,-0.334261298179626,-9.71696567535401,-0.47564235329628,0.0,0.0,0.0,0.0,0.0,0.0,0.0,0.0,0.0
1702252240468813233,196,2660569190,,0.0,0.0,0.0,0.0,0.0,0.0,0.0,0.0,0.0,0.0,0.0,0.0,0.0,0.0,0.0,0.0,0.0,0.0,0.0,0.0,0.0,0.0,0.0,0.0,0.0,-0.329159677028656,-9.71560287475586,-0.479540497064591,0.0,0.0,0.0,0.0,0.0,0.0,0.0,0.0,0.0
1702252240470534881,197,2668950319,,0.0,0.0,0.0,0.0,0.0,0.0,0.0,0.0,0.0,0.0,0.0,0.0,0.0,0.0,0.0,0.0,0.0,0.0,0.0,0.0,0.0,0.0,0.0,0.0,0.0,-0.317276775836945,-9.70348358154297,-0.465527087450028,0.0,0.0,0.0,0.0,0.0,0.0,0.0,0.0,0.0
1702252240472023900,198,2678714275,,0.0,0.0,0.0,0.0,0.0,0.0,0.0,0.0,0.0,0.0,0.0,0.0,0.0,0.0,0.0,0.0,0.0,0.0,0.0,0.0,0.0,0.0,0.0,0.0,0.0,-0.334938019514084,-9.70853233337402,-0.473535001277924,0.0,0.0,0.0,0.0,0.0,0.0,0.0,0.0,0.0
1702252240473717262,199,2688936471,,0.0,0.0,0.0,0.0,0.0,0.0,0.0,0.0,0.0,0.0,0.0,0.0,0.0,0.0,0.0,0.0,0.0,0.0,0.0,0.0,0.0,0.0,0.0,0.0,0.0,-0.32893443107605,-9.71091938018799,-0.459396749734879,0.0,0.0,0.0,0.0,0.0,0.0,0.0,0.0,0.0
1702252240475117632,200,2698493003,,0.0,0.0,0.0,0.0,0.0,0.0,0.0,0.0,0.0,0.0,0.0,0.0,0.0,0.0,0.0,0.0,0.0,0.0,0.0,0.0,0.0,0.0,0.0,0.0,0.0,-0.331360578536987,-9.71226215362549,-0.460841357707977,0.0,0.0,0.0,0.0,0.0,0.0,0.0,0.0,0.0
1702252240476820731,201,2708882331,,0.0,0.0,0.0,0.0,0.0,0.0,0.0,0.0,0.0,0.0,0.0,0.0,0.0,0.0,0.0,0.0,0.0,0.0,0.0,0.0,0.0,0.0,0.0,0.0,0.0,-0.320019960403442,-9.70784759521484,-0.476948350667954,0.0,0.0,0.0,0.0,0.0,0.0,0.0,0.0,0.0
1702252240478223012,202,2721406459,,0.0,0.0,0.0,0.0,0.0,0.0,0.0,0.0,0.0,0.0,0.0,0.0,0.0,0.0,0.0,0.0,0.0,0.0,0.0,0.0,0.0,0.0,0.0,0.0,0.0,-0.322056293487549,-9.71428298950195,-0.464487344026566,0.0,0.0,0.0,0.0,0.0,0.0,0.0,0.0,0.0
1702252240479949088,203,2730239868,,0.0,0.0,0.0,0.0,0.0,0.0,0.0,0.0,0.0,0.0,0.0,0.0,0.0,0.0,0.0,0.0,0.0,0.0,0.0,0.0,0.0,0.0,0.0,0.0,0.0,-0.332411646842957,-9.70853710174561,-0.472872048616409,0.0,0.0,0.0,0.0,0.0,0.0,0.0,0.0,0.0
1702252240481455346,204,2739404201,,0.0,0.0,0.0,0.0,0.0,0.0,0.0,0.0,0.0,0.0,0.0,0.0,0.0,0.0,0.0,0.0,0.0,0.0,0.0,0.0,0.0,0.0,0.0,0.0,0.0,-0.337065488100052,-9.71563625335694,-0.468095481395721,0.0,0.0,0.0,0.0,0.0,0.0,0.0,0.0,0.0
1702252240482980622,205,2750194787,,0.0,0.0,0.0,0.0,0.0,0.0,0.0,0.0,0.0,0.0,0.0,0.0,0.0,0.0,0.0,0.0,0.0,0.0,0.0,0.0,0.0,0.0,0.0,0.0,0.0,-0.326875597238541,-9.72033309936523,-0.480372935533524,0.0,0.0,0.0,0.0,0.0,0.0,0.0,0.0,0.0
1702252240485000713,206,2759171247,,0.0,0.0,0.0,0.0,0.0,0.0,0.0,0.0,0.0,0.0,0.0,0.0,0.0,0.0,0.0,0.0,0.0,0.0,0.0,0.0,0.0,0.0,0.0,0.0,0.0,-0.331187397241592,-9.7196626663208,-0.480362683534622,0.0,0.0,0.0,0.0,0.0,0.0,0.0,0.0,0.0
1702252240486886346,207,2768910408,,0.0,0.0,0.0,0.0,0.0,0.0,0.0,0.0,0.0,0.0,0.0,0.0,0.0,0.0,0.0,0.0,0.0,0.0,0.0,0.0,0.0,0.0,0.0,0.0,0.0,-0.328044235706329,-9.70853137969971,-0.48084482550621,0.0,0.0,0.0,0.0,0.0,0.0,0.0,0.0,0.0
1702252240488967670,208,2780092000,,0.0,0.0,0.0,0.0,0.0,0.0,0.0,0.0,0.0,0.0,0.0,0.0,0.0,0.0,0.0,0.0,0.0,0.0,0.0,0.0,0.0,0.0,0.0,0.0,0.0,-0.32239955663681,-9.70447444915772,-0.47539234161377,0.0,0.0,0.0,0.0,0.0,0.0,0.0,0.0,0.0
1702252240491195121,209,2789859056,,0.0,0.0,0.0,0.0,0.0,0.0,0.0,0.0,0.0,0.0,0.0,0.0,0.0,0.0,0.0,0.0,0.0,0.0,0.0,0.0,0.0,0.0,0.0,0.0,0.0,-0.327180564403534,-9.70447063446045,-0.475052356719971,0.0,0.0,0.0,0.0,0.0,0.0,0.0,0.0,0.0
1702252240493137175,210,2799862623,,0.0,0.0,0.0,0.0,0.0,0.0,0.0,0.0,0.0,0.0,0.0,0.0,0.0,0.0,0.0,0.0,0.0,0.0,0.0,0.0,0.0,0.0,0.0,0.0,0.0,-0.32865098118782,-9.71863842010498,-0.481278449296951,0.0,0.0,0.0,0.0,0.0,0.0,0.0,0.0,0.0
1702252240498075718,211,2809533834,,0.0,0.0,0.0,0.0,0.0,0.0,0.0,0.0,0.0,0.0,0.0,0.0,0.0,0.0,0.0,0.0,0.0,0.0,0.0,0.0,0.0,0.0,0.0,0.0,0.0,-0.327916175127029,-9.71361064910889,-0.465826123952866,0.0,0.0,0.0,0.0,0.0,0.0,0.0,0.0,0.0
1702252240499613454,212,2828737020,,0.0,0.0,0.0,0.0,0.0,0.0,0.0,0.0,0.0,0.0,0.0,0.0,0.0,0.0,0.0,0.0,0.0,0.0,0.0,0.0,0.0,0.0,0.0,0.0,0.0,-0.338979154825211,-9.71022129058838,-0.468563050031662,0.0,0.0,0.0,0.0,0.0,0.0,0.0,0.0,0.0
1702252240501239569,213,2833643913,,0.0,0.0,0.0,0.0,0.0,0.0,0.0,0.0,0.0,0.0,0.0,0.0,0.0,0.0,0.0,0.0,0.0,0.0,0.0,0.0,0.0,0.0,0.0,0.0,0.0,-0.326925992965698,-9.70954513549805,-0.470071047544479,0.0,0.0,0.0,0.0,0.0,0.0,0.0,0.0,0.0
1702252240502755042,214,2842736721,,0.0,0.0,0.0,0.0,0.0,0.0,0.0,0.0,0.0,0.0,0.0,0.0,0.0,0.0,0.0,0.0,0.0,0.0,0.0,0.0,0.0,0.0,0.0,0.0,0.0,-0.322876125574112,-9.70380973815918,-0.474360853433609,0.0,0.0,0.0,0.0,0.0,0.0,0.0,0.0,0.0
1702252240504408345,215,2852114915,,0.0,0.0,0.0,0.0,0.0,0.0,0.0,0.0,0.0,0.0,0.0,0.0,0.0,0.0,0.0,0.0,0.0,0.0,0.0,0.0,0.0,0.0,0.0,0.0,0.0,-0.336427927017212,-9.7132682800293,-0.466800957918167,0.0,0.0,0.0,0.0,0.0,0.0,0.0,0.0,0.0
1702252240505909459,216,2861386060,,0.0,0.0,0.0,0.0,0.0,0.0,0.0,0.0,0.0,0.0,0.0,0.0,0.0,0.0,0.0,0.0,0.0,0.0,0.0,0.0,0.0,0.0,0.0,0.0,0.0,-0.324808299541473,-9.71526527404785,-0.476476490497589,0.0,0.0,0.0,0.0,0.0,0.0,0.0,0.0,0.0
1702252240507638569,217,2868786334,,0.0,0.0,0.0,0.0,0.0,0.0,0.0,0.0,0.0,0.0,0.0,0.0,0.0,0.0,0.0,0.0,0.0,0.0,0.0,0.0,0.0,0.0,0.0,0.0,0.0,-0.328167051076889,-9.72101974487305,-0.473268806934357,0.0,0.0,0.0,0.0,0.0,0.0,0.0,0.0,0.0
1702252240509191943,218,2879397153,,0.0,0.0,0.0,0.0,0.0,0.0,0.0,0.0,0.0,0.0,0.0,0.0,0.0,0.0,0.0,0.0,0.0,0.0,0.0,0.0,0.0,0.0,0.0,0.0,0.0,-0.327981531620026,-9.71697235107422,-0.473590016365051,0.0,0.0,0.0,0.0,0.0,0.0,0.0,0.0,0.0
1702252240510774009,219,2889704942,,0.0,0.0,0.0,0.0,0.0,0.0,0.0,0.0,0.0,0.0,0.0,0.0,0.0,0.0,0.0,0.0,0.0,0.0,0.0,0.0,0.0,0.0,0.0,0.0,0.0,-0.320345103740692,-9.71798610687256,-0.468495965003967,0.0,0.0,0.0,0.0,0.0,0.0,0.0,0.0,0.0
1702252240512214283,220,2899534225,,0.0,0.0,0.0,0.0,0.0,0.0,0.0,0.0,0.0,0.0,0.0,0.0,0.0,0.0,0.0,0.0,0.0,0.0,0.0,0.0,0.0,0.0,0.0,0.0,0.0,-0.325190246105194,-9.72303199768066,-0.475715011358261,0.0,0.0,0.0,0.0,0.0,0.0,0.0,0.0,0.0
1702252240513884891,221,2909965991,,0.0,0.0,0.0,0.0,0.0,0.0,0.0,0.0,0.0,0.0,0.0,0.0,0.0,0.0,0.0,0.0,0.0,0.0,0.0,0.0,0.0,0.0,0.0,0.0,0.0,-0.332169085741043,-9.7058219909668,-0.484654814004898,0.0,0.0,0.0,0.0,0.0,0.0,0.0,0.0,0.0
1702252240515496825,222,2918779611,,0.0,0.0,0.0,0.0,0.0,0.0,0.0,0.0,0.0,0.0,0.0,0.0,0.0,0.0,0.0,0.0,0.0,0.0,0.0,0.0,0.0,0.0,0.0,0.0,0.0,-0.333140850067139,-9.71967124938965,-0.469581097364426,0.0,0.0,0.0,0.0,0.0,0.0,0.0,0.0,0.0
1702252240517432674,223,2932163953,,0.0,0.0,0.0,0.0,0.0,0.0,0.0,0.0,0.0,0.0,0.0,0.0,0.0,0.0,0.0,0.0,0.0,0.0,0.0,0.0,0.0,0.0,0.0,0.0,0.0,-0.32741516828537,-9.72305774688721,-0.465093463659287,0.0,0.0,0.0,0.0,0.0,0.0,0.0,0.0,0.0
1702252240519259572,224,2938606023,,0.0,0.0,0.0,0.0,0.0,0.0,0.0,0.0,0.0,0.0,0.0,0.0,0.0,0.0,0.0,0.0,0.0,0.0,0.0,0.0,0.0,0.0,0.0,0.0,0.0,-0.333199471235275,-9.70921230316162,-0.475098103284836,0.0,0.0,0.0,0.0,0.0,0.0,0.0,0.0,0.0
1702252240521475983,225,2949877738,,0.0,0.0,0.0,0.0,0.0,0.0,0.0,0.0,0.0,0.0,0.0,0.0,0.0,0.0,0.0,0.0,0.0,0.0,0.0,0.0,0.0,0.0,0.0,0.0,0.0,-0.333932757377625,-9.71630859375,-0.471034228801727,0.0,0.0,0.0,0.0,0.0,0.0,0.0,0.0,0.0
1702252240523388255,226,2967033147,,0.0,0.0,0.0,0.0,0.0,0.0,0.0,0.0,0.0,0.0,0.0,0.0,0.0,0.0,0.0,0.0,0.0,0.0,0.0,0.0,0.0,0.0,0.0,0.0,0.0,-0.332543134689331,-9.71932983398438,-0.467378556728363,0.0,0.0,0.0,0.0,0.0,0.0,0.0,0.0,0.0
1702252240525088371,227,2973899602,,0.0,0.0,0.0,0.0,0.0,0.0,0.0,0.0,0.0,0.0,0.0,0.0,0.0,0.0,0.0,0.0,0.0,0.0,0.0,0.0,0.0,0.0,0.0,0.0,0.0,-0.331961125135422,-9.71763134002686,-0.48394900560379,0.0,0.0,0.0,0.0,0.0,0.0,0.0,0.0,0.0
1702252240527077918,228,2984235525,,0.0,0.0,0.0,0.0,0.0,0.0,0.0,0.0,0.0,0.0,0.0,0.0,0.0,0.0,0.0,0.0,0.0,0.0,0.0,0.0,0.0,0.0,0.0,0.0,0.0,-0.321393191814423,-9.70953369140625,-0.478035867214203,0.0,0.0,0.0,0.0,0.0,0.0,0.0,0.0,0.0
1702252240529066651,229,2989024877,,0.0,0.0,0.0,0.0,0.0,0.0,0.0,0.0,0.0,0.0,0.0,0.0,0.0,0.0,0.0,0.0,0.0,0.0,0.0,0.0,0.0,0.0,0.0,0.0,0.0,-0.327857077121735,-9.72304153442383,-0.472002416849136,0.0,0.0,0.0,0.0,0.0,0.0,0.0,0.0,0.0
1702252240530675505,230,3000187873,,0.0,0.0,0.0,0.0,0.0,0.0,0.0,0.0,0.0,0.0,0.0,0.0,0.0,0.0,0.0,0.0,0.0,0.0,0.0,0.0,0.0,0.0,0.0,0.0,0.0,-0.334442257881165,-9.70582962036133,-0.477695286273956,0.0,0.0,0.0,0.0,0.0,0.0,0.0,0.0,0.0
1702252240532319841,231,3008834600,,0.0,0.0,0.0,0.0,0.0,0.0,0.0,0.0,0.0,0.0,0.0,0.0,0.0,0.0,0.0,0.0,0.0,0.0,0.0,0.0,0.0,0.0,0.0,0.0,0.0,-0.320897400379181,-9.70818996429444,-0.468680202960968,0.0,0.0,0.0,0.0,0.0,0.0,0.0,0.0,0.0
1702252240533925829,232,3019834995,,0.0,0.0,0.0,0.0,0.0,0.0,0.0,0.0,0.0,0.0,0.0,0.0,0.0,0.0,0.0,0.0,0.0,0.0,0.0,0.0,0.0,0.0,0.0,0.0,0.0,-0.339698970317841,-9.70887756347656,-0.471417874097824,0.0,0.0,0.0,0.0,0.0,0.0,0.0,0.0,0.0
1702252240535637858,233,3035410642,,0.0,0.0,0.0,0.0,0.0,0.0,0.0,0.0,0.0,0.0,0.0,0.0,0.0,0.0,0.0,0.0,0.0,0.0,0.0,0.0,0.0,0.0,0.0,0.0,0.0,-0.328244268894196,-9.72101402282715,-0.473639309406281,0.0,0.0,0.0,0.0,0.0,0.0,0.0,0.0,0.0
1702252240537192270,234,3041049718,,0.0,0.0,0.0,0.0,0.0,0.0,0.0,0.0,0.0,0.0,0.0,0.0,0.0,0.0,0.0,0.0,0.0,0.0,0.0,0.0,0.0,0.0,0.0,0.0,0.0,-0.329216301441193,-9.71933460235596,-0.471517205238342,0.0,0.0,0.0,0.0,0.0,0.0,0.0,0.0,0.0
1702252240538857478,235,3048823833,,0.0,0.0,0.0,0.0,0.0,0.0,0.0,0.0,0.0,0.0,0.0,0.0,0.0,0.0,0.0,0.0,0.0,0.0,0.0,0.0,0.0,0.0,0.0,0.0,0.0,-0.329584389925003,-9.72068119049072,-0.47757551074028,0.0,0.0,0.0,0.0,0.0,0.0,0.0,0.0,0.0
1702252240540582772,236,3058995246,,0.0,0.0,0.0,0.0,0.0,0.0,0.0,0.0,0.0,0.0,0.0,0.0,0.0,0.0,0.0,0.0,0.0,0.0,0.0,0.0,0.0,0.0,0.0,0.0,0.0,-0.325308978557587,-9.71561622619629,-0.471716552972794,0.0,0.0,0.0,0.0,0.0,0.0,0.0,0.0,0.0
1702252240542193126,237,3068988323,,0.0,0.0,0.0,0.0,0.0,0.0,0.0,0.0,0.0,0.0,0.0,0.0,0.0,0.0,0.0,0.0,0.0,0.0,0.0,0.0,0.0,0.0,0.0,0.0,0.0,-0.328663378953934,-9.71799945831299,-0.461120337247849,0.0,0.0,0.0,0.0,0.0,0.0,0.0,0.0,0.0
1702252240543681823,238,3078723192,,0.0,0.0,0.0,0.0,0.0,0.0,0.0,0.0,0.0,0.0,0.0,0.0,0.0,0.0,0.0,0.0,0.0,0.0,0.0,0.0,0.0,0.0,0.0,0.0,0.0,-0.324179828166962,-9.71798038482666,-0.4752177298069,0.0,0.0,0.0,0.0,0.0,0.0,0.0,0.0,0.0
1702252240545522020,239,3091783046,,0.0,0.0,0.0,0.0,0.0,0.0,0.0,0.0,0.0,0.0,0.0,0.0,0.0,0.0,0.0,0.0,0.0,0.0,0.0,0.0,0.0,0.0,0.0,0.0,0.0,-0.320733517408371,-9.71256637573242,-0.477139055728912,0.0,0.0,0.0,0.0,0.0,0.0,0.0,0.0,0.0
1702252240547335498,240,3099042415,,0.0,0.0,0.0,0.0,0.0,0.0,0.0,0.0,0.0,0.0,0.0,0.0,0.0,0.0,0.0,0.0,0.0,0.0,0.0,0.0,0.0,0.0,0.0,0.0,0.0,-0.328867703676224,-9.70785808563233,-0.477501899003983,0.0,0.0,0.0,0.0,0.0,0.0,0.0,0.0,0.0
1702252240549968610,241,3109161615,,0.0,0.0,0.0,0.0,0.0,0.0,0.0,0.0,0.0,0.0,0.0,0.0,0.0,0.0,0.0,0.0,0.0,0.0,0.0,0.0,0.0,0.0,0.0,0.0,0.0,-0.326833695173264,-9.72067642211914,-0.470355719327927,0.0,0.0,0.0,0.0,0.0,0.0,0.0,0.0,0.0
1702252240552029276,242,3119714260,,0.0,0.0,0.0,0.0,0.0,0.0,0.0,0.0,0.0,0.0,0.0,0.0,0.0,0.0,0.0,0.0,0.0,0.0,0.0,0.0,0.0,0.0,0.0,0.0,0.0,-0.323220998048782,-9.71864795684815,-0.479073077440262,0.0,0.0,0.0,0.0,0.0,0.0,0.0,0.0,0.0
1702252240553941093,243,3131936311,,0.0,0.0,0.0,0.0,0.0,0.0,0.0,0.0,0.0,0.0,0.0,0.0,0.0,0.0,0.0,0.0,0.0,0.0,0.0,0.0,0.0,0.0,0.0,0.0,0.0,-0.336150079965591,-9.71460914611816,-0.469519466161728,0.0,0.0,0.0,0.0,0.0,0.0,0.0,0.0,0.0
1702252240555618048,244,3144352674,,0.0,0.0,0.0,0.0,0.0,0.0,0.0,0.0,0.0,0.0,0.0,0.0,0.0,0.0,0.0,0.0,0.0,0.0,0.0,0.0,0.0,0.0,0.0,0.0,0.0,-0.327562272548676,-9.7206916809082,-0.464355021715164,0.0,0.0,0.0,0.0,0.0,0.0,0.0,0.0,0.0
1702252240558101439,245,3150351524,,0.0,0.0,0.0,0.0,0.0,0.0,0.0,0.0,0.0,0.0,0.0,0.0,0.0,0.0,0.0,0.0,0.0,0.0,0.0,0.0,0.0,0.0,0.0,0.0,0.0,-0.332948476076126,-9.71258449554444,-0.47384187579155,0.0,0.0,0.0,0.0,0.0,0.0,0.0,0.0,0.0
1702252240560044395,246,3160493373,,0.0,0.0,0.0,0.0,0.0,0.0,0.0,0.0,0.0,0.0,0.0,0.0,0.0,0.0,0.0,0.0,0.0,0.0,0.0,0.0,0.0,0.0,0.0,0.0,0.0,-0.331639498472214,-9.70480918884277,-0.47764378786087,0.0,0.0,0.0,0.0,0.0,0.0,0.0,0.0,0.0
1702252240561969840,247,3169480562,,0.0,0.0,0.0,0.0,0.0,0.0,0.0,0.0,0.0,0.0,0.0,0.0,0.0,0.0,0.0,0.0,0.0,0.0,0.0,0.0,0.0,0.0,0.0,0.0,0.0,-0.335183262825012,-9.71055507659912,-0.474639087915421,0.0,0.0,0.0,0.0,0.0,0.0,0.0,0.0,0.0
1702252240563489783,248,3178518533,,0.0,0.0,0.0,0.0,0.0,0.0,0.0,0.0,0.0,0.0,0.0,0.0,0.0,0.0,0.0,0.0,0.0,0.0,0.0,0.0,0.0,0.0,0.0,0.0,0.0,-0.323014378547668,-9.71426486968994,-0.474030137062073,0.0,0.0,0.0,0.0,0.0,0.0,0.0,0.0,0.0
1702252240564959917,249,3188777208,,0.0,0.0,0.0,0.0,0.0,0.0,0.0,0.0,0.0,0.0,0.0,0.0,0.0,0.0,0.0,0.0,0.0,0.0,0.0,0.0,0.0,0.0,0.0,0.0,0.0,-0.333806395530701,-9.7115650177002,-0.47737067937851,0.0,0.0,0.0,0.0,0.0,0.0,0.0,0.0,0.0
1702252240566589525,250,3201782941,,0.0,0.0,0.0,0.0,0.0,0.0,0.0,0.0,0.0,0.0,0.0,0.0,0.0,0.0,0.0,0.0,0.0,0.0,0.0,0.0,0.0,0.0,0.0,0.0,0.0,-0.329443752765656,-9.71595764160156,-0.471494019031525,0.0,0.0,0.0,0.0,0.0,0.0,0.0,0.0,0.0
1702252240567995744,251,3208592414,,0.0,0.0,0.0,0.0,0.0,0.0,0.0,0.0,0.0,0.0,0.0,0.0,0.0,0.0,0.0,0.0,0.0,0.0,0.0,0.0,0.0,0.0,0.0,0.0,0.0,-0.327547699213028,-9.71122264862061,-0.473641186952591,0.0,0.0,0.0,0.0,0.0,0.0,0.0,0.0,0.0
1702252240569556446,252,3218738317,,0.0,0.0,0.0,0.0,0.0,0.0,0.0,0.0,0.0,0.0,0.0,0.0,0.0,0.0,0.0,0.0,0.0,0.0,0.0,0.0,0.0,0.0,0.0,0.0,0.0,-0.326399594545364,-9.71022987365723,-0.465459614992142,0.0,0.0,0.0,0.0,0.0,0.0,0.0,0.0,0.0
1702252240571052347,253,3232110023,,0.0,0.0,0.0,0.0,0.0,0.0,0.0,0.0,0.0,0.0,0.0,0.0,0.0,0.0,0.0,0.0,0.0,0.0,0.0,0.0,0.0,0.0,0.0,0.0,0.0,-0.32601323723793,-9.71257972717285,-0.476238042116165,0.0,0.0,0.0,0.0,0.0,0.0,0.0,0.0,0.0
1702252240572542872,254,3243338823,,0.0,0.0,0.0,0.0,0.0,0.0,0.0,0.0,0.0,0.0,0.0,0.0,0.0,0.0,0.0,0.0,0.0,0.0,0.0,0.0,0.0,0.0,0.0,0.0,0.0,-0.335113435983658,-9.72035503387451,-0.469100832939148,0.0,0.0,0.0,0.0,0.0,0.0,0.0,0.0,0.0
1702252240574509915,255,3249139070,,0.0,0.0,0.0,0.0,0.0,0.0,0.0,0.0,0.0,0.0,0.0,0.0,0.0,0.0,0.0,0.0,0.0,0.0,0.0,0.0,0.0,0.0,0.0,0.0,0.0,-0.338730365037918,-9.70346927642822,-0.479294836521149,0.0,0.0,0.0,0.0,0.0,0.0,0.0,0.0,0.0
1702252240576359655,256,3258744716,,0.0,0.0,0.0,0.0,0.0,0.0,0.0,0.0,0.0,0.0,0.0,0.0,0.0,0.0,0.0,0.0,0.0,0.0,0.0,0.0,0.0,0.0,0.0,0.0,0.0,-0.340257078409195,-9.72203636169434,-0.471867799758911,0.0,0.0,0.0,0.0,0.0,0.0,0.0,0.0,0.0
1702252240578190986,257,3269587039,,0.0,0.0,0.0,0.0,0.0,0.0,0.0,0.0,0.0,0.0,0.0,0.0,0.0,0.0,0.0,0.0,0.0,0.0,0.0,0.0,0.0,0.0,0.0,0.0,0.0,-0.331398099660873,-9.71832275390625,-0.468632936477661,0.0,0.0,0.0,0.0,0.0,0.0,0.0,0.0,0.0
1702252240580242014,258,3279763936,,0.0,0.0,0.0,0.0,0.0,0.0,0.0,0.0,0.0,0.0,0.0,0.0,0.0,0.0,0.0,0.0,0.0,0.0,0.0,0.0,0.0,0.0,0.0,0.0,0.0,-0.326603144407272,-9.71730518341065,-0.477560758590698,0.0,0.0,0.0,0.0,0.0,0.0,0.0,0.0,0.0
1702252240582083174,259,3289534807,,0.0,0.0,0.0,0.0,0.0,0.0,0.0,0.0,0.0,0.0,0.0,0.0,0.0,0.0,0.0,0.0,0.0,0.0,0.0,0.0,0.0,0.0,0.0,0.0,0.0,-0.34050390124321,-9.70382213592529,-0.46842959523201,0.0,0.0,0.0,0.0,0.0,0.0,0.0,0.0,0.0
1702252240584266192,260,3300934791,,0.0,0.0,0.0,0.0,0.0,0.0,0.0,0.0,0.0,0.0,0.0,0.0,0.0,0.0,0.0,0.0,0.0,0.0,0.0,0.0,0.0,0.0,0.0,0.0,0.0,-0.328805148601532,-9.72068881988526,-0.471101760864258,0.0,0.0,0.0,0.0,0.0,0.0,0.0,0.0,0.0
1702252240586013096,261,3311678409,,0.0,0.0,0.0,0.0,0.0,0.0,0.0,0.0,0.0,0.0,0.0,0.0,0.0,0.0,0.0,0.0,0.0,0.0,0.0,0.0,0.0,0.0,0.0,0.0,0.0,-0.330907881259918,-9.71595668792725,-0.482201397418976,0.0,0.0,0.0,0.0,0.0,0.0,0.0,0.0,0.0
1702252240587552566,262,3321195125,,0.0,0.0,0.0,0.0,0.0,0.0,0.0,0.0,0.0,0.0,0.0,0.0,0.0,0.0,0.0,0.0,0.0,0.0,0.0,0.0,0.0,0.0,0.0,0.0,0.0,-0.332985401153564,-9.70583438873291,-0.469157248735428,0.0,0.0,0.0,0.0,0.0,0.0,0.0,0.0,0.0
1702252240589049568,263,3329883098,,0.0,0.0,0.0,0.0,0.0,0.0,0.0,0.0,0.0,0.0,0.0,0.0,0.0,0.0,0.0,0.0,0.0,0.0,0.0,0.0,0.0,0.0,0.0,0.0,0.0,-0.334968268871307,-9.71427440643311,-0.475062012672424,0.0,0.0,0.0,0.0,0.0,0.0,0.0,0.0,0.0
1702252240590723954,264,3340911149,,0.0,0.0,0.0,0.0,0.0,0.0,0.0,0.0,0.0,0.0,0.0,0.0,0.0,0.0,0.0,0.0,0.0,0.0,0.0,0.0,0.0,0.0,0.0,0.0,0.0,-0.322559535503387,-9.72035503387451,-0.468421578407288,0.0,0.0,0.0,0.0,0.0,0.0,0.0,0.0,0.0
1702252240592304110,265,3350143194,,0.0,0.0,0.0,0.0,0.0,0.0,0.0,0.0,0.0,0.0,0.0,0.0,0.0,0.0,0.0,0.0,0.0,0.0,0.0,0.0,0.0,0.0,0.0,0.0,0.0,-0.322525411844254,-9.70986938476562,-0.479778826236725,0.0,0.0,0.0,0.0,0.0,0.0,0.0,0.0,0.0
1702252240594228070,266,3359348773,,0.0,0.0,0.0,0.0,0.0,0.0,0.0,0.0,0.0,0.0,0.0,0.0,0.0,0.0,0.0,0.0,0.0,0.0,0.0,0.0,0.0,0.0,0.0,0.0,0.0,-0.324359923601151,-9.71595287322998,-0.48053702712059,0.0,0.0,0.0,0.0,0.0,0.0,0.0,0.0,0.0
1702252240596070257,267,3369371175,,0.0,0.0,0.0,0.0,0.0,0.0,0.0,0.0,0.0,0.0,0.0,0.0,0.0,0.0,0.0,0.0,0.0,0.0,0.0,0.0,0.0,0.0,0.0,0.0,0.0,-0.326035529375076,-9.72169303894043,-0.478253781795502,0.0,0.0,0.0,0.0,0.0,0.0,0.0,0.0,0.0
1702252240597472975,268,3379325628,,0.0,0.0,0.0,0.0,0.0,0.0,0.0,0.0,0.0,0.0,0.0,0.0,0.0,0.0,0.0,0.0,0.0,0.0,0.0,0.0,0.0,0.0,0.0,0.0,0.0,-0.333910822868347,-9.71696567535401,-0.473602592945099,0.0,0.0,0.0,0.0,0.0,0.0,0.0,0.0,0.0
1702252240599039228,269,3389384269,,0.0,0.0,0.0,0.0,0.0,0.0,0.0,0.0,0.0,0.0,0.0,0.0,0.0,0.0,0.0,0.0,0.0,0.0,0.0,0.0,0.0,0.0,0.0,0.0,0.0,-0.345069855451584,-9.71731853485108,-0.468412965536118,0.0,0.0,0.0,0.0,0.0,0.0,0.0,0.0,0.0
1702252240600735607,270,3398647546,,0.0,0.0,0.0,0.0,0.0,0.0,0.0,0.0,0.0,0.0,0.0,0.0,0.0,0.0,0.0,0.0,0.0,0.0,0.0,0.0,0.0,0.0,0.0,0.0,0.0,-0.325212568044663,-9.71562004089355,-0.472938448190689,0.0,0.0,0.0,0.0,0.0,0.0,0.0,0.0,0.0
1702252240602297057,271,3408887147,,0.0,0.0,0.0,0.0,0.0,0.0,0.0,0.0,0.0,0.0,0.0,0.0,0.0,0.0,0.0,0.0,0.0,0.0,0.0,0.0,0.0,0.0,0.0,0.0,0.0,-0.327391088008881,-9.71291351318359,-0.473691761493683,0.0,0.0,0.0,0.0,0.0,0.0,0.0,0.0,0.0
1702252240603799331,272,3419528722,,0.0,0.0,0.0,0.0,0.0,0.0,0.0,0.0,0.0,0.0,0.0,0.0,0.0,0.0,0.0,0.0,0.0,0.0,0.0,0.0,0.0,0.0,0.0,0.0,0.0,-0.324735850095749,-9.71427154541016,-0.47278892993927,0.0,0.0,0.0,0.0,0.0,0.0,0.0,0.0,0.0
1702252240605372904,273,3428855180,,0.0,0.0,0.0,0.0,0.0,0.0,0.0,0.0,0.0,0.0,0.0,0.0,0.0,0.0,0.0,0.0,0.0,0.0,0.0,0.0,0.0,0.0,0.0,0.0,0.0,-0.327692657709122,-9.70382881164551,-0.463328838348389,0.0,0.0,0.0,0.0,0.0,0.0,0.0,0.0,0.0
1702252240606932409,274,3439905643,,0.0,0.0,0.0,0.0,0.0,0.0,0.0,0.0,0.0,0.0,0.0,0.0,0.0,0.0,0.0,0.0,0.0,0.0,0.0,0.0,0.0,0.0,0.0,0.0,0.0,-0.334134161472321,-9.71798038482666,-0.473615050315857,0.0,0.0,0.0,0.0,0.0,0.0,0.0,0.0,0.0
1702252240608711575,275,3449140787,,0.0,0.0,0.0,0.0,0.0,0.0,0.0,0.0,0.0,0.0,0.0,0.0,0.0,0.0,0.0,0.0,0.0,0.0,0.0,0.0,0.0,0.0,0.0,0.0,0.0,-0.320929199457169,-9.70852088928223,-0.476194828748703,0.0,0.0,0.0,0.0,0.0,0.0,0.0,0.0,0.0
1702252240610476466,276,3459184646,,0.0,0.0,0.0,0.0,0.0,0.0,0.0,0.0,0.0,0.0,0.0,0.0,0.0,0.0,0.0,0.0,0.0,0.0,0.0,0.0,0.0,0.0,0.0,0.0,0.0,-0.32638955116272,-9.69840621948242,-0.471569031476975,0.0,0.0,0.0,0.0,0.0,0.0,0.0,0.0,0.0
1702252240613254228,277,3468308687,,0.0,0.0,0.0,0.0,0.0,0.0,0.0,0.0,0.0,0.0,0.0,0.0,0.0,0.0,0.0,0.0,0.0,0.0,0.0,0.0,0.0,0.0,0.0,0.0,0.0,-0.33037480711937,-9.71395206451416,-0.464715421199799,0.0,0.0,0.0,0.0,0.0,0.0,0.0,0.0,0.0
1702252240615484880,278,3478615760,,0.0,0.0,0.0,0.0,0.0,0.0,0.0,0.0,0.0,0.0,0.0,0.0,0.0,0.0,0.0,0.0,0.0,0.0,0.0,0.0,0.0,0.0,0.0,0.0,0.0,-0.321953743696213,-9.71156692504883,-0.471307158470154,0.0,0.0,0.0,0.0,0.0,0.0,0.0,0.0,0.0
1702252240617285471,279,3489910364,,0.0,0.0,0.0,0.0,0.0,0.0,0.0,0.0,0.0,0.0,0.0,0.0,0.0,0.0,0.0,0.0,0.0,0.0,0.0,0.0,0.0,0.0,0.0,0.0,0.0,-0.333165556192398,-9.70884704589844,-0.485558867454529,0.0,0.0,0.0,0.0,0.0,0.0,0.0,0.0,0.0
1702252240618985369,280,3499718189,,0.0,0.0,0.0,0.0,0.0,0.0,0.0,0.0,0.0,0.0,0.0,0.0,0.0,0.0,0.0,0.0,0.0,0.0,0.0,0.0,0.0,0.0,0.0,0.0,0.0,-0.320141702890396,-9.70380115509033,-0.477636933326721,0.0,0.0,0.0,0.0,0.0,0.0,0.0,0.0,0.0
1702252240620572641,281,3509575128,,0.0,0.0,0.0,0.0,0.0,0.0,0.0,0.0,0.0,0.0,0.0,0.0,0.0,0.0,0.0,0.0,0.0,0.0,0.0,0.0,0.0,0.0,0.0,0.0,0.0,-0.326900541782379,-9.70720291137695,-0.464776992797852,0.0,0.0,0.0,0.0,0.0,0.0,0.0,0.0,0.0
1702252240622178614,282,3519451856,,0.0,0.0,0.0,0.0,0.0,0.0,0.0,0.0,0.0,0.0,0.0,0.0,0.0,0.0,0.0,0.0,0.0,0.0,0.0,0.0,0.0,0.0,0.0,0.0,0.0,-0.330992788076401,-9.71089553833008,-0.472090721130371,0.0,0.0,0.0,0.0,0.0,0.0,0.0,0.0,0.0
1702252240623737487,283,3529963970,,0.0,0.0,0.0,0.0,0.0,0.0,0.0,0.0,0.0,0.0,0.0,0.0,0.0,0.0,0.0,0.0,0.0,0.0,0.0,0.0,0.0,0.0,0.0,0.0,0.0,-0.333832442760468,-9.70380306243897,-0.480247378349304,0.0,0.0,0.0,0.0,0.0,0.0,0.0,0.0,0.0
1702252240625464129,284,3543141603,,0.0,0.0,0.0,0.0,0.0,0.0,0.0,0.0,0.0,0.0,0.0,0.0,0.0,0.0,0.0,0.0,0.0,0.0,0.0,0.0,0.0,0.0,0.0,0.0,0.0,-0.330365717411041,-9.71224880218506,-0.46822252869606,0.0,0.0,0.0,0.0,0.0,0.0,0.0,0.0,0.0
1702252240626861494,285,3551067113,,0.0,0.0,0.0,0.0,0.0,0.0,0.0,0.0,0.0,0.0,0.0,0.0,0.0,0.0,0.0,0.0,0.0,0.0,0.0,0.0,0.0,0.0,0.0,0.0,0.0,-0.32979553937912,-9.70885562896729,-0.480791985988617,0.0,0.0,0.0,0.0,0.0,0.0,0.0,0.0,0.0
1702252240628388513,286,3560373067,,0.0,0.0,0.0,0.0,0.0,0.0,0.0,0.0,0.0,0.0,0.0,0.0,0.0,0.0,0.0,0.0,0.0,0.0,0.0,0.0,0.0,0.0,0.0,0.0,0.0,-0.332577258348465,-9.71089553833008,-0.472622841596603,0.0,0.0,0.0,0.0,0.0,0.0,0.0,0.0,0.0
1702252240632786787,287,3569554328,,0.0,0.0,0.0,0.0,0.0,0.0,0.0,0.0,0.0,0.0,0.0,0.0,0.0,0.0,0.0,0.0,0.0,0.0,0.0,0.0,0.0,0.0,0.0,0.0,0.0,-0.322358161211014,-9.71358585357666,-0.474676996469498,0.0,0.0,0.0,0.0,0.0,0.0,0.0,0.0,0.0
1702252240634287616,288,3579896688,,0.0,0.0,0.0,0.0,0.0,0.0,0.0,0.0,0.0,0.0,0.0,0.0,0.0,0.0,0.0,0.0,0.0,0.0,0.0,0.0,0.0,0.0,0.0,0.0,0.0,-0.326319515705109,-9.71596050262451,-0.469049453735352,0.0,0.0,0.0,0.0,0.0,0.0,0.0,0.0,0.0
1702252240635926147,289,3589136600,,0.0,0.0,0.0,0.0,0.0,0.0,0.0,0.0,0.0,0.0,0.0,0.0,0.0,0.0,0.0,0.0,0.0,0.0,0.0,0.0,0.0,0.0,0.0,0.0,0.0,-0.322732180356979,-9.70851802825928,-0.474786698818207,0.0,0.0,0.0,0.0,0.0,0.0,0.0,0.0,0.0
1702252240637507201,290,3599557638,,0.0,0.0,0.0,0.0,0.0,0.0,0.0,0.0,0.0,0.0,0.0,0.0,0.0,0.0,0.0,0.0,0.0,0.0,0.0,0.0,0.0,0.0,0.0,0.0,0.0,-0.327896058559418,-9.70313358306885,-0.474218130111694,0.0,0.0,0.0,0.0,0.0,0.0,0.0,0.0,0.0
1702252240639040811,291,3608990192,,0.0,0.0,0.0,0.0,0.0,0.0,0.0,0.0,0.0,0.0,0.0,0.0,0.0,0.0,0.0,0.0,0.0,0.0,0.0,0.0,0.0,0.0,0.0,0.0,0.0,-0.322000980377197,-9.70819187164307,-0.471348583698273,0.0,0.0,0.0,0.0,0.0,0.0,0.0,0.0,0.0
1702252240640904333,292,3619938135,,0.0,0.0,0.0,0.0,0.0,0.0,0.0,0.0,0.0,0.0,0.0,0.0,0.0,0.0,0.0,0.0,0.0,0.0,0.0,0.0,0.0,0.0,0.0,0.0,0.0,-0.321442037820816,-9.71899890899658,-0.47559654712677,0.0,0.0,0.0,0.0,0.0,0.0,0.0,0.0,0.0
1702252240642910662,293,3629141092,,0.0,0.0,0.0,0.0,0.0,0.0,0.0,0.0,0.0,0.0,0.0,0.0,0.0,0.0,0.0,0.0,0.0,0.0,0.0,0.0,0.0,0.0,0.0,0.0,0.0,-0.331000149250031,-9.71832180023194,-0.469388067722321,0.0,0.0,0.0,0.0,0.0,0.0,0.0,0.0,0.0
1702252240645407062,294,3642618417,,0.0,0.0,0.0,0.0,0.0,0.0,0.0,0.0,0.0,0.0,0.0,0.0,0.0,0.0,0.0,0.0,0.0,0.0,0.0,0.0,0.0,0.0,0.0,0.0,0.0,-0.327376425266266,-9.7210283279419,-0.465195059776306,0.0,0.0,0.0,0.0,0.0,0.0,0.0,0.0,0.0
1702252240647433738,295,3650260210,,0.0,0.0,0.0,0.0,0.0,0.0,0.0,0.0,0.0,0.0,0.0,0.0,0.0,0.0,0.0,0.0,0.0,0.0,0.0,0.0,0.0,0.0,0.0,0.0,0.0,-0.332103401422501,-9.71259117126465,-0.468912214040756,0.0,0.0,0.0,0.0,0.0,0.0,0.0,0.0,0.0
1702252240649087158,296,3658975601,,0.0,0.0,0.0,0.0,0.0,0.0,0.0,0.0,0.0,0.0,0.0,0.0,0.0,0.0,0.0,0.0,0.0,0.0,0.0,0.0,0.0,0.0,0.0,0.0,0.0,-0.337096661329269,-9.70517349243164,-0.470714747905731,0.0,0.0,0.0,0.0,0.0,0.0,0.0,0.0,0.0
1702252240650567778,297,3669304609,,0.0,0.0,0.0,0.0,0.0,0.0,0.0,0.0,0.0,0.0,0.0,0.0,0.0,0.0,0.0,0.0,0.0,0.0,0.0,0.0,0.0,0.0,0.0,0.0,0.0,-0.318329632282257,-9.71527862548828,-0.467628479003906,0.0,0.0,0.0,0.0,0.0,0.0,0.0,0.0,0.0
1702252240652132996,298,3684582471,,0.0,0.0,0.0,0.0,0.0,0.0,0.0,0.0,0.0,0.0,0.0,0.0,0.0,0.0,0.0,0.0,0.0,0.0,0.0,0.0,0.0,0.0,0.0,0.0,0.0,-0.332648128271103,-9.71966552734375,-0.471641600131989,0.0,0.0,0.0,0.0,0.0,0.0,0.0,0.0,0.0
1702252240653781143,299,3695013046,,0.0,0.0,0.0,0.0,0.0,0.0,0.0,0.0,0.0,0.0,0.0,0.0,0.0,0.0,0.0,0.0,0.0,0.0,0.0,0.0,0.0,0.0,0.0,0.0,0.0,-0.328342378139496,-9.70651340484619,-0.474211424589157,0.0,0.0,0.0,0.0,0.0,0.0,0.0,0.0,0.0
1702252240655525976,300,3698839902,,0.0,0.0,0.0,0.0,0.0,0.0,0.0,0.0,0.0,0.0,0.0,0.0,0.0,0.0,0.0,0.0,0.0,0.0,0.0,0.0,0.0,0.0,0.0,0.0,0.0,-0.333298325538635,-9.7203426361084,-0.471295893192291,0.0,0.0,0.0,0.0,0.0,0.0,0.0,0.0,0.0
1702252240657005495,301,3708747386,,0.0,0.0,0.0,0.0,0.0,0.0,0.0,0.0,0.0,0.0,0.0,0.0,0.0,0.0,0.0,0.0,0.0,0.0,0.0,0.0,0.0,0.0,0.0,0.0,0.0,-0.329398214817047,-9.71291637420654,-0.479885369539261,0.0,0.0,0.0,0.0,0.0,0.0,0.0,0.0,0.0
1702252240658637676,302,3719026327,,0.0,0.0,0.0,0.0,0.0,0.0,0.0,0.0,0.0,0.0,0.0,0.0,0.0,0.0,0.0,0.0,0.0,0.0,0.0,0.0,0.0,0.0,0.0,0.0,0.0,-0.332142412662506,-9.71428108215332,-0.467202752828598,0.0,0.0,0.0,0.0,0.0,0.0,0.0,0.0,0.0
1702252240660360430,303,3749861717,,0.0,0.0,0.0,0.0,0.0,0.0,0.0,0.0,0.0,0.0,0.0,0.0,0.0,0.0,0.0,0.0,0.0,0.0,0.0,0.0,0.0,0.0,0.0,0.0,0.0,-0.331209540367126,-9.71594619750977,-0.474964022636414,0.0,0.0,0.0,0.0,0.0,0.0,0.0,0.0,0.0
1702252240662062936,304,3757371187,,0.0,0.0,0.0,0.0,0.0,0.0,0.0,0.0,0.0,0.0,0.0,0.0,0.0,0.0,0.0,0.0,0.0,0.0,0.0,0.0,0.0,0.0,0.0,0.0,0.0,-0.318616390228271,-9.71899223327637,-0.470946729183197,0.0,0.0,0.0,0.0,0.0,0.0,0.0,0.0,0.0
1702252240663613553,305,3768236398,,0.0,0.0,0.0,0.0,0.0,0.0,0.0,0.0,0.0,0.0,0.0,0.0,0.0,0.0,0.0,0.0,0.0,0.0,0.0,0.0,0.0,0.0,0.0,0.0,0.0,-0.336636364459991,-9.70954990386963,-0.465198040008545,0.0,0.0,0.0,0.0,0.0,0.0,0.0,0.0,0.0
1702252240665214228,306,3774305820,,0.0,0.0,0.0,0.0,0.0,0.0,0.0,0.0,0.0,0.0,0.0,0.0,0.0,0.0,0.0,0.0,0.0,0.0,0.0,0.0,0.0,0.0,0.0,0.0,0.0,-0.325110822916031,-9.71731948852539,-0.467469930648804,0.0,0.0,0.0,0.0,0.0,0.0,0.0,0.0,0.0
1702252240666803092,307,3779934167,,0.0,0.0,0.0,0.0,0.0,0.0,0.0,0.0,0.0,0.0,0.0,0.0,0.0,0.0,0.0,0.0,0.0,0.0,0.0,0.0,0.0,0.0,0.0,0.0,0.0,-0.325594335794449,-9.71594619750977,-0.479650676250458,0.0,0.0,0.0,0.0,0.0,0.0,0.0,0.0,0.0
1702252240668300716,308,3790727138,,0.0,0.0,0.0,0.0,0.0,0.0,0.0,0.0,0.0,0.0,0.0,0.0,0.0,0.0,0.0,0.0,0.0,0.0,0.0,0.0,0.0,0.0,0.0,0.0,0.0,-0.330823093652725,-9.70448017120362,-0.474643141031265,0.0,0.0,0.0,0.0,0.0,0.0,0.0,0.0,0.0
1702252240669770541,309,3800651550,,0.0,0.0,0.0,0.0,0.0,0.0,0.0,0.0,0.0,0.0,0.0,0.0,0.0,0.0,0.0,0.0,0.0,0.0,0.0,0.0,0.0,0.0,0.0,0.0,0.0,-0.321938902139664,-9.71427917480469,-0.471470683813095,0.0,0.0,0.0,0.0,0.0,0.0,0.0,0.0,0.0
1702252240671660777,310,3838279008,,0.0,0.0,0.0,0.0,0.0,0.0,0.0,0.0,0.0,0.0,0.0,0.0,0.0,0.0,0.0,0.0,0.0,0.0,0.0,0.0,0.0,0.0,0.0,0.0,0.0,-0.328759580850601,-9.70652198791504,-0.470003634691238,0.0,0.0,0.0,0.0,0.0,0.0,0.0,0.0,0.0
1702252240673835873,311,3847917556,,0.0,0.0,0.0,0.0,0.0,0.0,0.0,0.0,0.0,0.0,0.0,0.0,0.0,0.0,0.0,0.0,0.0,0.0,0.0,0.0,0.0,0.0,0.0,0.0,0.0,-0.320234149694443,-9.70919704437256,-0.47713229060173,0.0,0.0,0.0,0.0,0.0,0.0,0.0,0.0,0.0
1702252240676517099,312,3851796627,,0.0,0.0,0.0,0.0,0.0,0.0,0.0,0.0,0.0,0.0,0.0,0.0,0.0,0.0,0.0,0.0,0.0,0.0,0.0,0.0,0.0,0.0,0.0,0.0,0.0,-0.327956438064575,-9.71360015869141,-0.47465381026268,0.0,0.0,0.0,0.0,0.0,0.0,0.0,0.0,0.0
1702252240678591954,313,3860086679,,0.0,0.0,0.0,0.0,0.0,0.0,0.0,0.0,0.0,0.0,0.0,0.0,0.0,0.0,0.0,0.0,0.0,0.0,0.0,0.0,0.0,0.0,0.0,0.0,0.0,-0.318992495536804,-9.71327304840088,-0.468273550271988,0.0,0.0,0.0,0.0,0.0,0.0,0.0,0.0,0.0
1702252240680394150,314,3869863033,,0.0,0.0,0.0,0.0,0.0,0.0,0.0,0.0,0.0,0.0,0.0,0.0,0.0,0.0,0.0,0.0,0.0,0.0,0.0,0.0,0.0,0.0,0.0,0.0,0.0,-0.330362141132355,-9.71866512298584,-0.470220297574997,0.0,0.0,0.0,0.0,0.0,0.0,0.0,0.0,0.0
1702252240682216884,315,3879275798,,0.0,0.0,0.0,0.0,0.0,0.0,0.0,0.0,0.0,0.0,0.0,0.0,0.0,0.0,0.0,0.0,0.0,0.0,0.0,0.0,0.0,0.0,0.0,0.0,0.0,-0.329939782619476,-9.71494007110596,-0.473011761903763,0.0,0.0,0.0,0.0,0.0,0.0,0.0,0.0,0.0
1702252240683873245,316,3890704631,,0.0,0.0,0.0,0.0,0.0,0.0,0.0,0.0,0.0,0.0,0.0,0.0,0.0,0.0,0.0,0.0,0.0,0.0,0.0,0.0,0.0,0.0,0.0,0.0,0.0,-0.319331675767899,-9.71088886260987,-0.473665356636047,0.0,0.0,0.0,0.0,0.0,0.0,0.0,0.0,0.0
1702252240685426925,317,3899310588,,0.0,0.0,0.0,0.0,0.0,0.0,0.0,0.0,0.0,0.0,0.0,0.0,0.0,0.0,0.0,0.0,0.0,0.0,0.0,0.0,0.0,0.0,0.0,0.0,0.0,-0.330430179834366,-9.70955562591553,-0.464418292045593,0.0,0.0,0.0,0.0,0.0,0.0,0.0,0.0,0.0
1702252240686950542,318,3909673213,,0.0,0.0,0.0,0.0,0.0,0.0,0.0,0.0,0.0,0.0,0.0,0.0,0.0,0.0,0.0,0.0,0.0,0.0,0.0,0.0,0.0,0.0,0.0,0.0,0.0,-0.326351076364517,-9.7176399230957,-0.478041678667069,0.0,0.0,0.0,0.0,0.0,0.0,0.0,0.0,0.0
1702252240688479252,319,3919259786,,0.0,0.0,0.0,0.0,0.0,0.0,0.0,0.0,0.0,0.0,0.0,0.0,0.0,0.0,0.0,0.0,0.0,0.0,0.0,0.0,0.0,0.0,0.0,0.0,0.0,-0.33768230676651,-9.70616912841797,-0.475241154432297,0.0,0.0,0.0,0.0,0.0,0.0,0.0,0.0,0.0
1702252240689994148,320,3934243917,,0.0,0.0,0.0,0.0,0.0,0.0,0.0,0.0,0.0,0.0,0.0,0.0,0.0,0.0,0.0,0.0,0.0,0.0,0.0,0.0,0.0,0.0,0.0,0.0,0.0,-0.330224245786667,-9.71223831176758,-0.475357741117477,0.0,0.0,0.0,0.0,0.0,0.0,0.0,0.0,0.0
1702252240691692933,321,3955775499,,0.0,0.0,0.0,0.0,0.0,0.0,0.0,0.0,0.0,0.0,0.0,0.0,0.0,0.0,0.0,0.0,0.0,0.0,0.0,0.0,0.0,0.0,0.0,0.0,0.0,-0.339706182479858,-9.71763324737549,-0.476767599582672,0.0,0.0,0.0,0.0,0.0,0.0,0.0,0.0,0.0
1702252240693195032,322,3962323665,,0.0,0.0,0.0,0.0,0.0,0.0,0.0,0.0,0.0,0.0,0.0,0.0,0.0,0.0,0.0,0.0,0.0,0.0,0.0,0.0,0.0,0.0,0.0,0.0,0.0,-0.334531426429749,-9.71662998199463,-0.47397118806839,0.0,0.0,0.0,0.0,0.0,0.0,0.0,0.0,0.0
1702252240694576701,323,3969326019,,0.0,0.0,0.0,0.0,0.0,0.0,0.0,0.0,0.0,0.0,0.0,0.0,0.0,0.0,0.0,0.0,0.0,0.0,0.0,0.0,0.0,0.0,0.0,0.0,0.0,-0.322168052196503,-9.71527862548828,-0.471221327781677,0.0,0.0,0.0,0.0,0.0,0.0,0.0,0.0,0.0
1702252240696241297,324,3978832721,,0.0,0.0,0.0,0.0,0.0,0.0,0.0,0.0,0.0,0.0,0.0,0.0,0.0,0.0,0.0,0.0,0.0,0.0,0.0,0.0,0.0,0.0,0.0,0.0,0.0,-0.329047590494156,-9.71122169494629,-0.47800475358963,0.0,0.0,0.0,0.0,0.0,0.0,0.0,0.0,0.0
1702252240697670434,325,3988434791,,0.0,0.0,0.0,0.0,0.0,0.0,0.0,0.0,0.0,0.0,0.0,0.0,0.0,0.0,0.0,0.0,0.0,0.0,0.0,0.0,0.0,0.0,0.0,0.0,0.0,-0.319929569959641,-9.71088600158691,-0.475997418165207,0.0,0.0,0.0,0.0,0.0,0.0,0.0,0.0,0.0
1702252240699072634,326,3998743057,,0.0,0.0,0.0,0.0,0.0,0.0,0.0,0.0,0.0,0.0,0.0,0.0,0.0,0.0,0.0,0.0,0.0,0.0,0.0,0.0,0.0,0.0,0.0,0.0,0.0,-0.328914076089859,-9.70751476287842,-0.476952910423279,0.0,0.0,0.0,0.0,0.0,0.0,0.0,0.0,0.0
1702252240700663760,327,4008963823,,0.0,0.0,0.0,0.0,0.0,0.0,0.0,0.0,0.0,0.0,0.0,0.0,0.0,0.0,0.0,0.0,0.0,0.0,0.0,0.0,0.0,0.0,0.0,0.0,0.0,-0.32844665646553,-9.71291542053223,-0.474031269550323,0.0,0.0,0.0,0.0,0.0,0.0,0.0,0.0,0.0
1702252240702945018,328,4018703222,,0.0,0.0,0.0,0.0,0.0,0.0,0.0,0.0,0.0,0.0,0.0,0.0,0.0,0.0,0.0,0.0,0.0,0.0,0.0,0.0,0.0,0.0,0.0,0.0,0.0,-0.340137541294098,-9.70617961883545,-0.467202067375183,0.0,0.0,0.0,0.0,0.0,0.0,0.0,0.0,0.0
1702252240704980647,329,4030526399,,0.0,0.0,0.0,0.0,0.0,0.0,0.0,0.0,0.0,0.0,0.0,0.0,0.0,0.0,0.0,0.0,0.0,0.0,0.0,0.0,0.0,0.0,0.0,0.0,0.0,-0.325584679841995,-9.70988082885742,-0.477968752384186,0.0,0.0,0.0,0.0,0.0,0.0,0.0,0.0,0.0
1702252240707162853,330,4038484811,,0.0,0.0,0.0,0.0,0.0,0.0,0.0,0.0,0.0,0.0,0.0,0.0,0.0,0.0,0.0,0.0,0.0,0.0,0.0,0.0,0.0,0.0,0.0,0.0,0.0,-0.3274065554142,-9.7139196395874,-0.475779920816422,0.0,0.0,0.0,0.0,0.0,0.0,0.0,0.0,0.0
1702252240709245640,331,4051421403,,0.0,0.0,0.0,0.0,0.0,0.0,0.0,0.0,0.0,0.0,0.0,0.0,0.0,0.0,0.0,0.0,0.0,0.0,0.0,0.0,0.0,0.0,0.0,0.0,0.0,-0.324538201093674,-9.70921039581299,-0.473674386739731,0.0,0.0,0.0,0.0,0.0,0.0,0.0,0.0,0.0
1702252240711179477,332,4059177875,,0.0,0.0,0.0,0.0,0.0,0.0,0.0,0.0,0.0,0.0,0.0,0.0,0.0,0.0,0.0,0.0,0.0,0.0,0.0,0.0,0.0,0.0,0.0,0.0,0.0,-0.331775426864624,-9.70684242248535,-0.47862720489502,0.0,0.0,0.0,0.0,0.0,0.0,0.0,0.0,0.0
1702252240713017535,333,4069207191,,0.0,0.0,0.0,0.0,0.0,0.0,0.0,0.0,0.0,0.0,0.0,0.0,0.0,0.0,0.0,0.0,0.0,0.0,0.0,0.0,0.0,0.0,0.0,0.0,0.0,-0.329261064529419,-9.707839012146,-0.480430811643601,0.0,0.0,0.0,0.0,0.0,0.0,0.0,0.0,0.0
1702252240714477444,334,4078472614,,0.0,0.0,0.0,0.0,0.0,0.0,0.0,0.0,0.0,0.0,0.0,0.0,0.0,0.0,0.0,0.0,0.0,0.0,0.0,0.0,0.0,0.0,0.0,0.0,0.0,-0.338296413421631,-9.71763610839844,-0.483912825584412,0.0,0.0,0.0,0.0,0.0,0.0,0.0,0.0,0.0
1702252240715997393,335,4089192390,,0.0,0.0,0.0,0.0,0.0,0.0,0.0,0.0,0.0,0.0,0.0,0.0,0.0,0.0,0.0,0.0,0.0,0.0,0.0,0.0,0.0,0.0,0.0,0.0,0.0,-0.333538234233856,-9.70683002471924,-0.477530151605606,0.0,0.0,0.0,0.0,0.0,0.0,0.0,0.0,0.0
1702252240717535217,336,4098353147,,0.0,0.0,0.0,0.0,0.0,0.0,0.0,0.0,0.0,0.0,0.0,0.0,0.0,0.0,0.0,0.0,0.0,0.0,0.0,0.0,0.0,0.0,0.0,0.0,0.0,-0.342016875743866,-9.72001266479492,-0.469937086105347,0.0,0.0,0.0,0.0,0.0,0.0,0.0,0.0,0.0
1702252240718932445,337,4109165191,,0.0,0.0,0.0,0.0,0.0,0.0,0.0,0.0,0.0,0.0,0.0,0.0,0.0,0.0,0.0,0.0,0.0,0.0,0.0,0.0,0.0,0.0,0.0,0.0,0.0,-0.317743271589279,-9.70921039581299,-0.471284061670303,0.0,0.0,0.0,0.0,0.0,0.0,0.0,0.0,0.0
1702252240720450119,338,4118411540,,0.0,0.0,0.0,0.0,0.0,0.0,0.0,0.0,0.0,0.0,0.0,0.0,0.0,0.0,0.0,0.0,0.0,0.0,0.0,0.0,0.0,0.0,0.0,0.0,0.0,-0.318718671798706,-9.71124744415283,-0.459655940532684,0.0,0.0,0.0,0.0,0.0,0.0,0.0,0.0,0.0
1702252240722264096,339,4128814697,,0.0,0.0,0.0,0.0,0.0,0.0,0.0,0.0,0.0,0.0,0.0,0.0,0.0,0.0,0.0,0.0,0.0,0.0,0.0,0.0,0.0,0.0,0.0,0.0,0.0,-0.329401165246964,-9.71899318695069,-0.47296005487442,0.0,0.0,0.0,0.0,0.0,0.0,0.0,0.0,0.0
1702252240723692576,340,4140025138,,0.0,0.0,0.0,0.0,0.0,0.0,0.0,0.0,0.0,0.0,0.0,0.0,0.0,0.0,0.0,0.0,0.0,0.0,0.0,0.0,0.0,0.0,0.0,0.0,0.0,-0.318626791238785,-9.71562004089355,-0.470281451940537,0.0,0.0,0.0,0.0,0.0,0.0,0.0,0.0,0.0
1702252240725185829,341,4154018402,,0.0,0.0,0.0,0.0,0.0,0.0,0.0,0.0,0.0,0.0,0.0,0.0,0.0,0.0,0.0,0.0,0.0,0.0,0.0,0.0,0.0,0.0,0.0,0.0,0.0,-0.326034486293793,-9.70919609069824,-0.476426035165787,0.0,0.0,0.0,0.0,0.0,0.0,0.0,0.0,0.0
1702252240726664954,342,4158747434,,0.0,0.0,0.0,0.0,0.0,0.0,0.0,0.0,0.0,0.0,0.0,0.0,0.0,0.0,0.0,0.0,0.0,0.0,0.0,0.0,0.0,0.0,0.0,0.0,0.0,-0.334852278232574,-9.7112398147583,-0.463452368974686,0.0,0.0,0.0,0.0,0.0,0.0,0.0,0.0,0.0
1702252240728196062,343,4170214653,,0.0,0.0,0.0,0.0,0.0,0.0,0.0,0.0,0.0,0.0,0.0,0.0,0.0,0.0,0.0,0.0,0.0,0.0,0.0,0.0,0.0,0.0,0.0,0.0,0.0,-0.327513515949249,-9.71730041503906,-0.46949702501297,0.0,0.0,0.0,0.0,0.0,0.0,0.0,0.0,0.0
1702252240729747377,344,4179218053,,0.0,0.0,0.0,0.0,0.0,0.0,0.0,0.0,0.0,0.0,0.0,0.0,0.0,0.0,0.0,0.0,0.0,0.0,0.0,0.0,0.0,0.0,0.0,0.0,0.0,-0.331101149320602,-9.70988559722901,-0.472241371870041,0.0,0.0,0.0,0.0,0.0,0.0,0.0,0.0,0.0
1702252240731088768,345,4189141273,,0.0,0.0,0.0,0.0,0.0,0.0,0.0,0.0,0.0,0.0,0.0,0.0,0.0,0.0,0.0,0.0,0.0,0.0,0.0,0.0,0.0,0.0,0.0,0.0,0.0,-0.324094355106354,-9.71966171264648,-0.479671955108643,0.0,0.0,0.0,0.0,0.0,0.0,0.0,0.0,0.0
1702252240732521824,346,4202451944,,0.0,0.0,0.0,0.0,0.0,0.0,0.0,0.0,0.0,0.0,0.0,0.0,0.0,0.0,0.0,0.0,0.0,0.0,0.0,0.0,0.0,0.0,0.0,0.0,0.0,-0.331831902265549,-9.71325016021729,-0.483511984348297,0.0,0.0,0.0,0.0,0.0,0.0,0.0,0.0,0.0
1702252240734730310,347,4214579105,,0.0,0.0,0.0,0.0,0.0,0.0,0.0,0.0,0.0,0.0,0.0,0.0,0.0,0.0,0.0,0.0,0.0,0.0,0.0,0.0,0.0,0.0,0.0,0.0,0.0,-0.335238754749298,-9.70313358306885,-0.480455726385117,0.0,0.0,0.0,0.0,0.0,0.0,0.0,0.0,0.0
1702252240736511508,348,4225152015,,0.0,0.0,0.0,0.0,0.0,0.0,0.0,0.0,0.0,0.0,0.0,0.0,0.0,0.0,0.0,0.0,0.0,0.0,0.0,0.0,0.0,0.0,0.0,0.0,0.0,-0.323443174362183,-9.71291637420654,-0.475653201341629,0.0,0.0,0.0,0.0,0.0,0.0,0.0,0.0,0.0
1702252240738498119,349,4229021072,,0.0,0.0,0.0,0.0,0.0,0.0,0.0,0.0,0.0,0.0,0.0,0.0,0.0,0.0,0.0,0.0,0.0,0.0,0.0,0.0,0.0,0.0,0.0,0.0,0.0,-0.326794862747192,-9.71360397338867,-0.464856624603271,0.0,0.0,0.0,0.0,0.0,0.0,0.0,0.0,0.0
1702252240740334084,350,4248106718,,0.0,0.0,0.0,0.0,0.0,0.0,0.0,0.0,0.0,0.0,0.0,0.0,0.0,0.0,0.0,0.0,0.0,0.0,0.0,0.0,0.0,0.0,0.0,0.0,0.0,-0.325422495603561,-9.71190071105957,-0.476040840148926,0.0,0.0,0.0,0.0,0.0,0.0,0.0,0.0,0.0
1702252240742175706,351,4250264644,,0.0,0.0,0.0,0.0,0.0,0.0,0.0,0.0,0.0,0.0,0.0,0.0,0.0,0.0,0.0,0.0,0.0,0.0,0.0,0.0,0.0,0.0,0.0,0.0,0.0,-0.331585228443146,-9.71527862548828,-0.477269053459167,0.0,0.0,0.0,0.0,0.0,0.0,0.0,0.0,0.0
1702252240744210498,352,4259645223,,0.0,0.0,0.0,0.0,0.0,0.0,0.0,0.0,0.0,0.0,0.0,0.0,0.0,0.0,0.0,0.0,0.0,0.0,0.0,0.0,0.0,0.0,0.0,0.0,0.0,-0.330399334430695,-9.71326732635498,-0.466781675815582,0.0,0.0,0.0,0.0,0.0,0.0,0.0,0.0,0.0
1702252240745892886,353,4268978118,,0.0,0.0,0.0,0.0,0.0,0.0,0.0,0.0,0.0,0.0,0.0,0.0,0.0,0.0,0.0,0.0,0.0,0.0,0.0,0.0,0.0,0.0,0.0,0.0,0.0,-0.330428808927536,-9.72305393218994,-0.461850643157959,0.0,0.0,0.0,0.0,0.0,0.0,0.0,0.0,0.0
1702252240747677603,354,4278722763,,0.0,0.0,0.0,0.0,0.0,0.0,0.0,0.0,0.0,0.0,0.0,0.0,0.0,0.0,0.0,0.0,0.0,0.0,0.0,0.0,0.0,0.0,0.0,0.0,0.0,-0.329716145992279,-9.71360015869141,-0.471752613782883,0.0,0.0,0.0,0.0,0.0,0.0,0.0,0.0,0.0
1702252240749286839,355,4291338205,,0.0,0.0,0.0,0.0,0.0,0.0,0.0,0.0,0.0,0.0,0.0,0.0,0.0,0.0,0.0,0.0,0.0,0.0,0.0,0.0,0.0,0.0,0.0,0.0,0.0,-0.327928721904755,-9.71898078918457,-0.476380109786987,0.0,0.0,0.0,0.0,0.0,0.0,0.0,0.0,0.0
1702252240750526297,356,4298441410,,0.0,0.0,0.0,0.0,0.0,0.0,0.0,0.0,0.0,0.0,0.0,0.0,0.0,0.0,0.0,0.0,0.0,0.0,0.0,0.0,0.0,0.0,0.0,0.0,0.0,-0.324066251516342,-9.71090030670166,-0.46748811006546,0.0,0.0,0.0,0.0,0.0,0.0,0.0,0.0,0.0
1702252240752125160,357,4311314821,,0.0,0.0,0.0,0.0,0.0,0.0,0.0,0.0,0.0,0.0,0.0,0.0,0.0,0.0,0.0,0.0,0.0,0.0,0.0,0.0,0.0,0.0,0.0,0.0,0.0,-0.32211771607399,-9.72371864318848,-0.473580271005631,0.0,0.0,0.0,0.0,0.0,0.0,0.0,0.0,0.0
1702252240754111139,358,4320033073,,0.0,0.0,0.0,0.0,0.0,0.0,0.0,0.0,0.0,0.0,0.0,0.0,0.0,0.0,0.0,0.0,0.0,0.0,0.0,0.0,0.0,0.0,0.0,0.0,0.0,-0.324756264686584,-9.71932888031006,-0.473609626293182,0.0,0.0,0.0,0.0,0.0,0.0,0.0,0.0,0.0
1702252240758280506,359,4329406023,,0.0,0.0,0.0,0.0,0.0,0.0,0.0,0.0,0.0,0.0,0.0,0.0,0.0,0.0,0.0,0.0,0.0,0.0,0.0,0.0,0.0,0.0,0.0,0.0,0.0,-0.31857305765152,-9.72135543823242,-0.464037477970123,0.0,0.0,0.0,0.0,0.0,0.0,0.0,0.0,0.0
1702252240759923051,360,4343406200,,0.0,0.0,0.0,0.0,0.0,0.0,0.0,0.0,0.0,0.0,0.0,0.0,0.0,0.0,0.0,0.0,0.0,0.0,0.0,0.0,0.0,0.0,0.0,0.0,0.0,-0.334614515304565,-9.70279312133789,-0.473523378372192,0.0,0.0,0.0,0.0,0.0,0.0,0.0,0.0,0.0
1702252240761502222,361,4349970817,,0.0,0.0,0.0,0.0,0.0,0.0,0.0,0.0,0.0,0.0,0.0,0.0,0.0,0.0,0.0,0.0,0.0,0.0,0.0,0.0,0.0,0.0,0.0,0.0,0.0,-0.330518364906311,-9.70009231567383,-0.469283580780029,0.0,0.0,0.0,0.0,0.0,0.0,0.0,0.0,0.0
1702252240763049350,362,4364829063,,0.0,0.0,0.0,0.0,0.0,0.0,0.0,0.0,0.0,0.0,0.0,0.0,0.0,0.0,0.0,0.0,0.0,0.0,0.0,0.0,0.0,0.0,0.0,0.0,0.0,-0.325488567352295,-9.71392440795898,-0.482611864805222,0.0,0.0,0.0,0.0,0.0,0.0,0.0,0.0,0.0
1702252240764928923,363,4372773170,,0.0,0.0,0.0,0.0,0.0,0.0,0.0,0.0,0.0,0.0,0.0,0.0,0.0,0.0,0.0,0.0,0.0,0.0,0.0,0.0,0.0,0.0,0.0,0.0,0.0,-0.322022289037705,-9.71392822265625,-0.477969974279404,0.0,0.0,0.0,0.0,0.0,0.0,0.0,0.0,0.0
1702252240767013986,364,4388440608,,0.0,0.0,0.0,0.0,0.0,0.0,0.0,0.0,0.0,0.0,0.0,0.0,0.0,0.0,0.0,0.0,0.0,0.0,0.0,0.0,0.0,0.0,0.0,0.0,0.0,-0.32118147611618,-9.71190166473389,-0.474258184432983,0.0,0.0,0.0,0.0,0.0,0.0,0.0,0.0,0.0
1702252240769139234,365,4397053480,,0.0,0.0,0.0,0.0,0.0,0.0,0.0,0.0,0.0,0.0,0.0,0.0,0.0,0.0,0.0,0.0,0.0,0.0,0.0,0.0,0.0,0.0,0.0,0.0,0.0,-0.326269805431366,-9.7196741104126,-0.474917560815811,0.0,0.0,0.0,0.0,0.0,0.0,0.0,0.0,0.0
1702252240770524883,366,4404289484,,0.0,0.0,0.0,0.0,0.0,0.0,0.0,0.0,0.0,0.0,0.0,0.0,0.0,0.0,0.0,0.0,0.0,0.0,0.0,0.0,0.0,0.0,0.0,0.0,0.0,-0.322948634624481,-9.7115650177002,-0.475637853145599,0.0,0.0,0.0,0.0,0.0,0.0,0.0,0.0,0.0
1702252240772599184,367,4415170907,,0.0,0.0,0.0,0.0,0.0,0.0,0.0,0.0,0.0,0.0,0.0,0.0,0.0,0.0,0.0,0.0,0.0,0.0,0.0,0.0,0.0,0.0,0.0,0.0,0.0,-0.33318904042244,-9.70954704284668,-0.480528265237808,0.0,0.0,0.0,0.0,0.0,0.0,0.0,0.0,0.0
1702252240774380729,368,4419960498,,0.0,0.0,0.0,0.0,0.0,0.0,0.0,0.0,0.0,0.0,0.0,0.0,0.0,0.0,0.0,0.0,0.0,0.0,0.0,0.0,0.0,0.0,0.0,0.0,0.0,-0.338603556156158,-9.70312690734863,-0.477241635322571,0.0,0.0,0.0,0.0,0.0,0.0,0.0,0.0,0.0
1702252240776283242,369,4431455135,,0.0,0.0,0.0,0.0,0.0,0.0,0.0,0.0,0.0,0.0,0.0,0.0,0.0,0.0,0.0,0.0,0.0,0.0,0.0,0.0,0.0,0.0,0.0,0.0,0.0,-0.328648030757904,-9.70651245117188,-0.472876250743866,0.0,0.0,0.0,0.0,0.0,0.0,0.0,0.0,0.0
1702252240778164332,370,4439287900,,0.0,0.0,0.0,0.0,0.0,0.0,0.0,0.0,0.0,0.0,0.0,0.0,0.0,0.0,0.0,0.0,0.0,0.0,0.0,0.0,0.0,0.0,0.0,0.0,0.0,-0.3265340924263,-9.70617866516113,-0.470321208238602,0.0,0.0,0.0,0.0,0.0,0.0,0.0,0.0,0.0
1702252240779739974,371,4448858737,,0.0,0.0,0.0,0.0,0.0,0.0,0.0,0.0,0.0,0.0,0.0,0.0,0.0,0.0,0.0,0.0,0.0,0.0,0.0,0.0,0.0,0.0,0.0,0.0,0.0,-0.327178597450256,-9.71764373779297,-0.467986136674881,0.0,0.0,0.0,0.0,0.0,0.0,0.0,0.0,0.0
1702252240781073122,372,4460977077,,0.0,0.0,0.0,0.0,0.0,0.0,0.0,0.0,0.0,0.0,0.0,0.0,0.0,0.0,0.0,0.0,0.0,0.0,0.0,0.0,0.0,0.0,0.0,0.0,0.0,-0.329707026481628,-9.71730518341065,-0.476928383111954,0.0,0.0,0.0,0.0,0.0,0.0,0.0,0.0,0.0
1702252240782849952,373,4468318939,,0.0,0.0,0.0,0.0,0.0,0.0,0.0,0.0,0.0,0.0,0.0,0.0,0.0,0.0,0.0,0.0,0.0,0.0,0.0,0.0,0.0,0.0,0.0,0.0,0.0,-0.33871141076088,-9.71594333648682,-0.480430752038956,0.0,0.0,0.0,0.0,0.0,0.0,0.0,0.0,0.0
1702252240784312675,374,4478908300,,0.0,0.0,0.0,0.0,0.0,0.0,0.0,0.0,0.0,0.0,0.0,0.0,0.0,0.0,0.0,0.0,0.0,0.0,0.0,0.0,0.0,0.0,0.0,0.0,0.0,-0.321689933538437,-9.71728992462158,-0.486128449440002,0.0,0.0,0.0,0.0,0.0,0.0,0.0,0.0,0.0
1702252240786342716,375,4490694046,,0.0,0.0,0.0,0.0,0.0,0.0,0.0,0.0,0.0,0.0,0.0,0.0,0.0,0.0,0.0,0.0,0.0,0.0,0.0,0.0,0.0,0.0,0.0,0.0,0.0,-0.329638153314591,-9.71427822113037,-0.468916952610016,0.0,0.0,0.0,0.0,0.0,0.0,0.0,0.0,0.0
1702252240788212199,376,4499280214,,0.0,0.0,0.0,0.0,0.0,0.0,0.0,0.0,0.0,0.0,0.0,0.0,0.0,0.0,0.0,0.0,0.0,0.0,0.0,0.0,0.0,0.0,0.0,0.0,0.0,-0.328959703445435,-9.70516204833984,-0.471886187791824,0.0,0.0,0.0,0.0,0.0,0.0,0.0,0.0,0.0
1702252240789790181,377,4509151935,,0.0,0.0,0.0,0.0,0.0,0.0,0.0,0.0,0.0,0.0,0.0,0.0,0.0,0.0,0.0,0.0,0.0,0.0,0.0,0.0,0.0,0.0,0.0,0.0,0.0,-0.334162324666977,-9.71730327606201,-0.47271203994751,0.0,0.0,0.0,0.0,0.0,0.0,0.0,0.0,0.0
1702252240791527497,378,4525428771,,0.0,0.0,0.0,0.0,0.0,0.0,0.0,0.0,0.0,0.0,0.0,0.0,0.0,0.0,0.0,0.0,0.0,0.0,0.0,0.0,0.0,0.0,0.0,0.0,0.0,-0.326778948307037,-9.71292304992676,-0.465864598751068,0.0,0.0,0.0,0.0,0.0,0.0,0.0,0.0,0.0
1702252240792919640,379,4530278205,,0.0,0.0,0.0,0.0,0.0,0.0,0.0,0.0,0.0,0.0,0.0,0.0,0.0,0.0,0.0,0.0,0.0,0.0,0.0,0.0,0.0,0.0,0.0,0.0,0.0,-0.325872242450714,-9.7088794708252,-0.468914896249771,0.0,0.0,0.0,0.0,0.0,0.0,0.0,0.0,0.0
1702252240794658466,380,4543275833,,0.0,0.0,0.0,0.0,0.0,0.0,0.0,0.0,0.0,0.0,0.0,0.0,0.0,0.0,0.0,0.0,0.0,0.0,0.0,0.0,0.0,0.0,0.0,0.0,0.0,-0.317160099744797,-9.70954418182373,-0.467683285474777,0.0,0.0,0.0,0.0,0.0,0.0,0.0,0.0,0.0
1702252240796490821,381,4549133062,,0.0,0.0,0.0,0.0,0.0,0.0,0.0,0.0,0.0,0.0,0.0,0.0,0.0,0.0,0.0,0.0,0.0,0.0,0.0,0.0,0.0,0.0,0.0,0.0,0.0,-0.322395414113998,-9.71021556854248,-0.479834705591202,0.0,0.0,0.0,0.0,0.0,0.0,0.0,0.0,0.0
1702252240798866428,382,4563718557,,0.0,0.0,0.0,0.0,0.0,0.0,0.0,0.0,0.0,0.0,0.0,0.0,0.0,0.0,0.0,0.0,0.0,0.0,0.0,0.0,0.0,0.0,0.0,0.0,0.0,-0.328303307294846,-9.71256923675537,-0.476579308509827,0.0,0.0,0.0,0.0,0.0,0.0,0.0,0.0,0.0
1702252240800997656,383,4568523406,,0.0,0.0,0.0,0.0,0.0,0.0,0.0,0.0,0.0,0.0,0.0,0.0,0.0,0.0,0.0,0.0,0.0,0.0,0.0,0.0,0.0,0.0,0.0,0.0,0.0,-0.330880612134934,-9.72472095489502,-0.480442732572556,0.0,0.0,0.0,0.0,0.0,0.0,0.0,0.0,0.0
1702252240803001937,384,4580311059,,0.0,0.0,0.0,0.0,0.0,0.0,0.0,0.0,0.0,0.0,0.0,0.0,0.0,0.0,0.0,0.0,0.0,0.0,0.0,0.0,0.0,0.0,0.0,0.0,0.0,-0.325934857130051,-9.70685768127441,-0.467161148786545,0.0,0.0,0.0,0.0,0.0,0.0,0.0,0.0,0.0
1702252240804929938,385,4589867591,,0.0,0.0,0.0,0.0,0.0,0.0,0.0,0.0,0.0,0.0,0.0,0.0,0.0,0.0,0.0,0.0,0.0,0.0,0.0,0.0,0.0,0.0,0.0,0.0,0.0,-0.323303729295731,-9.71089744567871,-0.470912367105484,0.0,0.0,0.0,0.0,0.0,0.0,0.0,0.0,0.0
1702252240806629860,386,4598949432,,0.0,0.0,0.0,0.0,0.0,0.0,0.0,0.0,0.0,0.0,0.0,0.0,0.0,0.0,0.0,0.0,0.0,0.0,0.0,0.0,0.0,0.0,0.0,0.0,0.0,-0.323752254247665,-9.71863269805908,-0.481297075748444,0.0,0.0,0.0,0.0,0.0,0.0,0.0,0.0,0.0
1702252240808718179,387,4609542131,,0.0,0.0,0.0,0.0,0.0,0.0,0.0,0.0,0.0,0.0,0.0,0.0,0.0,0.0,0.0,0.0,0.0,0.0,0.0,0.0,0.0,0.0,0.0,0.0,0.0,-0.32635772228241,-9.71866130828858,-0.470604330301285,0.0,0.0,0.0,0.0,0.0,0.0,0.0,0.0,0.0
1702252240810906991,388,4621548414,,0.0,0.0,0.0,0.0,0.0,0.0,0.0,0.0,0.0,0.0,0.0,0.0,0.0,0.0,0.0,0.0,0.0,0.0,0.0,0.0,0.0,0.0,0.0,0.0,0.0,-0.336744040250778,-9.70514392852783,-0.47728767991066,0.0,0.0,0.0,0.0,0.0,0.0,0.0,0.0,0.0
1702252240813020903,389,4630780696,,0.0,0.0,0.0,0.0,0.0,0.0,0.0,0.0,0.0,0.0,0.0,0.0,0.0,0.0,0.0,0.0,0.0,0.0,0.0,0.0,0.0,0.0,0.0,0.0,0.0,-0.325296819210052,-9.70616817474365,-0.475616276264191,0.0,0.0,0.0,0.0,0.0,0.0,0.0,0.0,0.0
1702252240814847736,390,4640454292,,0.0,0.0,0.0,0.0,0.0,0.0,0.0,0.0,0.0,0.0,0.0,0.0,0.0,0.0,0.0,0.0,0.0,0.0,0.0,0.0,0.0,0.0,0.0,0.0,0.0,-0.341251313686371,-9.70550918579102,-0.469067215919495,0.0,0.0,0.0,0.0,0.0,0.0,0.0,0.0,0.0
1702252240818464256,392,4661264419,,0.0,0.0,0.0,0.0,0.0,0.0,0.0,0.0,0.0,0.0,0.0,0.0,0.0,0.0,0.0,0.0,0.0,0.0,0.0,0.0,0.0,0.0,0.0,0.0,0.0,-0.328437387943268,-9.71359443664551,-0.476835817098618,0.0,0.0,0.0,0.0,0.0,0.0,0.0,0.0,0.0
1702252240820359491,393,4670238018,,0.0,0.0,0.0,0.0,0.0,0.0,0.0,0.0,0.0,0.0,0.0,0.0,0.0,0.0,0.0,0.0,0.0,0.0,0.0,0.0,0.0,0.0,0.0,0.0,0.0,-0.337318420410156,-9.71527576446533,-0.473666936159134,0.0,0.0,0.0,0.0,0.0,0.0,0.0,0.0,0.0
1702252240822286848,394,4680265903,,0.0,0.0,0.0,0.0,0.0,0.0,0.0,0.0,0.0,0.0,0.0,0.0,0.0,0.0,0.0,0.0,0.0,0.0,0.0,0.0,0.0,0.0,0.0,0.0,0.0,-0.322342246770859,-9.71932983398438,-0.471076279878616,0.0,0.0,0.0,0.0,0.0,0.0,0.0,0.0,0.0
1702252240824035680,395,4690593004,,0.0,0.0,0.0,0.0,0.0,0.0,0.0,0.0,0.0,0.0,0.0,0.0,0.0,0.0,0.0,0.0,0.0,0.0,0.0,0.0,0.0,0.0,0.0,0.0,0.0,-0.333258658647537,-9.71663475036621,-0.472260683774948,0.0,0.0,0.0,0.0,0.0,0.0,0.0,0.0,0.0
1702252240825703809,396,4698943614,,0.0,0.0,0.0,0.0,0.0,0.0,0.0,0.0,0.0,0.0,0.0,0.0,0.0,0.0,0.0,0.0,0.0,0.0,0.0,0.0,0.0,0.0,0.0,0.0,0.0,-0.326555132865906,-9.70784187316895,-0.482718586921692,0.0,0.0,0.0,0.0,0.0,0.0,0.0,0.0,0.0
1702252240827738227,397,4709275245,,0.0,0.0,0.0,0.0,0.0,0.0,0.0,0.0,0.0,0.0,0.0,0.0,0.0,0.0,0.0,0.0,0.0,0.0,0.0,0.0,0.0,0.0,0.0,0.0,0.0,-0.326298832893372,-9.7193431854248,-0.461004346609116,0.0,0.0,0.0,0.0,0.0,0.0,0.0,0.0,0.0
1702252240830182073,398,4719394683,,0.0,0.0,0.0,0.0,0.0,0.0,0.0,0.0,0.0,0.0,0.0,0.0,0.0,0.0,0.0,0.0,0.0,0.0,0.0,0.0,0.0,0.0,0.0,0.0,0.0,-0.330187559127808,-9.71933269500733,-0.47388431429863,0.0,0.0,0.0,0.0,0.0,0.0,0.0,0.0,0.0
1702252240832323748,399,4728449106,,0.0,0.0,0.0,0.0,0.0,0.0,0.0,0.0,0.0,0.0,0.0,0.0,0.0,0.0,0.0,0.0,0.0,0.0,0.0,0.0,0.0,0.0,0.0,0.0,0.0,-0.326825588941574,-9.71088218688965,-0.483970254659653,0.0,0.0,0.0,0.0,0.0,0.0,0.0,0.0,0.0
1702252240834372882,400,4739618301,,0.0,0.0,0.0,0.0,0.0,0.0,0.0,0.0,0.0,0.0,0.0,0.0,0.0,0.0,0.0,0.0,0.0,0.0,0.0,0.0,0.0,0.0,0.0,0.0,0.0,-0.333484202623367,-9.71865940093994,-0.476215183734894,0.0,0.0,0.0,0.0,0.0,0.0,0.0,0.0,0.0
1702252240836073296,401,4751179218,,0.0,0.0,0.0,0.0,0.0,0.0,0.0,0.0,0.0,0.0,0.0,0.0,0.0,0.0,0.0,0.0,0.0,0.0,0.0,0.0,0.0,0.0,0.0,0.0,0.0,-0.326936036348343,-9.71930599212647,-0.478637874126434,0.0,0.0,0.0,0.0,0.0,0.0,0.0,0.0,0.0
1702252240837706357,402,4760033607,,0.0,0.0,0.0,0.0,0.0,0.0,0.0,0.0,0.0,0.0,0.0,0.0,0.0,0.0,0.0,0.0,0.0,0.0,0.0,0.0,0.0,0.0,0.0,0.0,0.0,-0.329062223434448,-9.71764659881592,-0.471312642097473,0.0,0.0,0.0,0.0,0.0,0.0,0.0,0.0,0.0
1702252240839213821,403,4770854711,,0.0,0.0,0.0,0.0,0.0,0.0,0.0,0.0,0.0,0.0,0.0,0.0,0.0,0.0,0.0,0.0,0.0,0.0,0.0,0.0,0.0,0.0,0.0,0.0,0.0,-0.330975919961929,-9.72034454345703,-0.47324201464653,0.0,0.0,0.0,0.0,0.0,0.0,0.0,0.0,0.0
1702252240841026267,404,4779528379,,0.0,0.0,0.0,0.0,0.0,0.0,0.0,0.0,0.0,0.0,0.0,0.0,0.0,0.0,0.0,0.0,0.0,0.0,0.0,0.0,0.0,0.0,0.0,0.0,0.0,-0.325721323490143,-9.69772338867188,-0.475700438022614,0.0,0.0,0.0,0.0,0.0,0.0,0.0,0.0,0.0
1702252240842622171,405,4798122882,,0.0,0.0,0.0,0.0,0.0,0.0,0.0,0.0,0.0,0.0,0.0,0.0,0.0,0.0,0.0,0.0,0.0,0.0,0.0,0.0,0.0,0.0,0.0,0.0,0.0,-0.319031208753586,-9.7034502029419,-0.482474267482758,0.0,0.0,0.0,0.0,0.0,0.0,0.0,0.0,0.0
1702252240844151586,406,4800981760,,0.0,0.0,0.0,0.0,0.0,0.0,0.0,0.0,0.0,0.0,0.0,0.0,0.0,0.0,0.0,0.0,0.0,0.0,0.0,0.0,0.0,0.0,0.0,0.0,0.0,-0.335408836603165,-9.7152795791626,-0.477273851633072,0.0,0.0,0.0,0.0,0.0,0.0,0.0,0.0,0.0
1702252240845674097,407,4809365034,,0.0,0.0,0.0,0.0,0.0,0.0,0.0,0.0,0.0,0.0,0.0,0.0,0.0,0.0,0.0,0.0,0.0,0.0,0.0,0.0,0.0,0.0,0.0,0.0,0.0,-0.318155646324158,-9.70280170440674,-0.464146077632904,0.0,0.0,0.0,0.0,0.0,0.0,0.0,0.0,0.0
1702252240847541027,408,4819947957,,0.0,0.0,0.0,0.0,0.0,0.0,0.0,0.0,0.0,0.0,0.0,0.0,0.0,0.0,0.0,0.0,0.0,0.0,0.0,0.0,0.0,0.0,0.0,0.0,0.0,-0.330505937337875,-9.71124172210694,-0.466175556182861,0.0,0.0,0.0,0.0,0.0,0.0,0.0,0.0,0.0
1702252240849023601,409,4831042289,,0.0,0.0,0.0,0.0,0.0,0.0,0.0,0.0,0.0,0.0,0.0,0.0,0.0,0.0,0.0,0.0,0.0,0.0,0.0,0.0,0.0,0.0,0.0,0.0,0.0,-0.322973519563675,-9.71155452728272,-0.472832322120667,0.0,0.0,0.0,0.0,0.0,0.0,0.0,0.0,0.0
1702252240850762498,410,4839123010,,0.0,0.0,0.0,0.0,0.0,0.0,0.0,0.0,0.0,0.0,0.0,0.0,0.0,0.0,0.0,0.0,0.0,0.0,0.0,0.0,0.0,0.0,0.0,0.0,0.0,-0.322439610958099,-9.71628570556641,-0.470154970884323,0.0,0.0,0.0,0.0,0.0,0.0,0.0,0.0,0.0
1702252240852345001,411,4851183652,,0.0,0.0,0.0,0.0,0.0,0.0,0.0,0.0,0.0,0.0,0.0,0.0,0.0,0.0,0.0,0.0,0.0,0.0,0.0,0.0,0.0,0.0,0.0,0.0,0.0,-0.331039398908615,-9.71664619445801,-0.471317768096924,0.0,0.0,0.0,0.0,0.0,0.0,0.0,0.0,0.0
1702252240853960882,412,4858800888,,0.0,0.0,0.0,0.0,0.0,0.0,0.0,0.0,0.0,0.0,0.0,0.0,0.0,0.0,0.0,0.0,0.0,0.0,0.0,0.0,0.0,0.0,0.0,0.0,0.0,-0.325492441654205,-9.71326541900635,-0.465595245361328,0.0,0.0,0.0,0.0,0.0,0.0,0.0,0.0,0.0
1702252240855248388,413,4874279022,,0.0,0.0,0.0,0.0,0.0,0.0,0.0,0.0,0.0,0.0,0.0,0.0,0.0,0.0,0.0,0.0,0.0,0.0,0.0,0.0,0.0,0.0,0.0,0.0,0.0,-0.338598340749741,-9.7169828414917,-0.464665085077286,0.0,0.0,0.0,0.0,0.0,0.0,0.0,0.0,0.0
1702252240857568100,414,4878886461,,0.0,0.0,0.0,0.0,0.0,0.0,0.0,0.0,0.0,0.0,0.0,0.0,0.0,0.0,0.0,0.0,0.0,0.0,0.0,0.0,0.0,0.0,0.0,0.0,0.0,-0.329406023025513,-9.72406387329102,-0.46955394744873,0.0,0.0,0.0,0.0,0.0,0.0,0.0,0.0,0.0
1702252240860859813,415,4889354705,,0.0,0.0,0.0,0.0,0.0,0.0,0.0,0.0,0.0,0.0,0.0,0.0,0.0,0.0,0.0,0.0,0.0,0.0,0.0,0.0,0.0,0.0,0.0,0.0,0.0,-0.325411230325699,-9.70415782928467,-0.473656892776489,0.0,0.0,0.0,0.0,0.0,0.0,0.0,0.0,0.0
1702252240863320015,416,4898434638,,0.0,0.0,0.0,0.0,0.0,0.0,0.0,0.0,0.0,0.0,0.0,0.0,0.0,0.0,0.0,0.0,0.0,0.0,0.0,0.0,0.0,0.0,0.0,0.0,0.0,-0.328714579343796,-9.70752048492432,-0.472188472747803,0.0,0.0,0.0,0.0,0.0,0.0,0.0,0.0,0.0
1702252240865097422,417,4909600019,,0.0,0.0,0.0,0.0,0.0,0.0,0.0,0.0,0.0,0.0,0.0,0.0,0.0,0.0,0.0,0.0,0.0,0.0,0.0,0.0,0.0,0.0,0.0,0.0,0.0,-0.327196031808853,-9.69974231719971,-0.480762869119644,0.0,0.0,0.0,0.0,0.0,0.0,0.0,0.0,0.0
1702252240866653964,418,4919287204,,0.0,0.0,0.0,0.0,0.0,0.0,0.0,0.0,0.0,0.0,0.0,0.0,0.0,0.0,0.0,0.0,0.0,0.0,0.0,0.0,0.0,0.0,0.0,0.0,0.0,-0.326438963413239,-9.72439479827881,-0.467955559492111,0.0,0.0,0.0,0.0,0.0,0.0,0.0,0.0,0.0
1702252240868155032,419,4929379224,,0.0,0.0,0.0,0.0,0.0,0.0,0.0,0.0,0.0,0.0,0.0,0.0,0.0,0.0,0.0,0.0,0.0,0.0,0.0,0.0,0.0,0.0,0.0,0.0,0.0,-0.327742010354996,-9.70784378051758,-0.479896634817123,0.0,0.0,0.0,0.0,0.0,0.0,0.0,0.0,0.0
1702252240869837444,420,4939356327,,0.0,0.0,0.0,0.0,0.0,0.0,0.0,0.0,0.0,0.0,0.0,0.0,0.0,0.0,0.0,0.0,0.0,0.0,0.0,0.0,0.0,0.0,0.0,0.0,0.0,-0.328365743160248,-9.72336673736572,-0.48180079460144,0.0,0.0,0.0,0.0,0.0,0.0,0.0,0.0,0.0
1702252240871670606,421,4951599359,,0.0,0.0,0.0,0.0,0.0,0.0,0.0,0.0,0.0,0.0,0.0,0.0,0.0,0.0,0.0,0.0,0.0,0.0,0.0,0.0,0.0,0.0,0.0,0.0,0.0,-0.333851605653763,-9.71089553833008,-0.477865427732468,0.0,0.0,0.0,0.0,0.0,0.0,0.0,0.0,0.0
1702252240873553855,422,4960523605,,0.0,0.0,0.0,0.0,0.0,0.0,0.0,0.0,0.0,0.0,0.0,0.0,0.0,0.0,0.0,0.0,0.0,0.0,0.0,0.0,0.0,0.0,0.0,0.0,0.0,-0.336826592683792,-9.71461486816406,-0.468484401702881,0.0,0.0,0.0,0.0,0.0,0.0,0.0,0.0,0.0
1702252240875068060,423,4975064516,,0.0,0.0,0.0,0.0,0.0,0.0,0.0,0.0,0.0,0.0,0.0,0.0,0.0,0.0,0.0,0.0,0.0,0.0,0.0,0.0,0.0,0.0,0.0,0.0,0.0,-0.323871403932571,-9.70955467224121,-0.461964249610901,0.0,0.0,0.0,0.0,0.0,0.0,0.0,0.0,0.0
1702252240876787395,424,4981475353,,0.0,0.0,0.0,0.0,0.0,0.0,0.0,0.0,0.0,0.0,0.0,0.0,0.0,0.0,0.0,0.0,0.0,0.0,0.0,0.0,0.0,0.0,0.0,0.0,0.0,-0.327698141336441,-9.72540664672852,-0.472642332315445,0.0,0.0,0.0,0.0,0.0,0.0,0.0,0.0,0.0
1702252240878448774,425,4994165420,,0.0,0.0,0.0,0.0,0.0,0.0,0.0,0.0,0.0,0.0,0.0,0.0,0.0,0.0,0.0,0.0,0.0,0.0,0.0,0.0,0.0,0.0,0.0,0.0,0.0,-0.330390453338623,-9.71865844726562,-0.467639595270157,0.0,0.0,0.0,0.0,0.0,0.0,0.0,0.0,0.0
1702252240879963247,426,4998336315,,0.0,0.0,0.0,0.0,0.0,0.0,0.0,0.0,0.0,0.0,0.0,0.0,0.0,0.0,0.0,0.0,0.0,0.0,0.0,0.0,0.0,0.0,0.0,0.0,0.0,-0.336500257253647,-9.71528148651123,-0.475705802440643,0.0,0.0,0.0,0.0,0.0,0.0,0.0,0.0,0.0
1702252240881679645,427,5008465051,,0.0,0.0,0.0,0.0,0.0,0.0,0.0,0.0,0.0,0.0,0.0,0.0,0.0,0.0,0.0,0.0,0.0,0.0,0.0,0.0,0.0,0.0,0.0,0.0,0.0,-0.332494020462036,-9.71055221557617,-0.482204616069794,0.0,0.0,0.0,0.0,0.0,0.0,0.0,0.0,0.0
1702252240883422999,428,5019598484,,0.0,0.0,0.0,0.0,0.0,0.0,0.0,0.0,0.0,0.0,0.0,0.0,0.0,0.0,0.0,0.0,0.0,0.0,0.0,0.0,0.0,0.0,0.0,0.0,0.0,-0.329845875501633,-9.72304916381836,-0.469524472951889,0.0,0.0,0.0,0.0,0.0,0.0,0.0,0.0,0.0
1702252240885351507,429,5029571533,,0.0,0.0,0.0,0.0,0.0,0.0,0.0,0.0,0.0,0.0,0.0,0.0,0.0,0.0,0.0,0.0,0.0,0.0,0.0,0.0,0.0,0.0,0.0,0.0,0.0,-0.332080096006393,-9.71595668792725,-0.477927684783936,0.0,0.0,0.0,0.0,0.0,0.0,0.0,0.0,0.0
1702252240887444999,430,5039411783,,0.0,0.0,0.0,0.0,0.0,0.0,0.0,0.0,0.0,0.0,0.0,0.0,0.0,0.0,0.0,0.0,0.0,0.0,0.0,0.0,0.0,0.0,0.0,0.0,0.0,-0.332029581069946,-9.71360397338867,-0.471735000610352,0.0,0.0,0.0,0.0,0.0,0.0,0.0,0.0,0.0
1702252240889649064,431,5049821615,,0.0,0.0,0.0,0.0,0.0,0.0,0.0,0.0,0.0,0.0,0.0,0.0,0.0,0.0,0.0,0.0,0.0,0.0,0.0,0.0,0.0,0.0,0.0,0.0,0.0,-0.336888432502747,-9.71866512298584,-0.473023116588593,0.0,0.0,0.0,0.0,0.0,0.0,0.0,0.0,0.0
1702252240891931345,432,5060177803,,0.0,0.0,0.0,0.0,0.0,0.0,0.0,0.0,0.0,0.0,0.0,0.0,0.0,0.0,0.0,0.0,0.0,0.0,0.0,0.0,0.0,0.0,0.0,0.0,0.0,-0.329976707696915,-9.70988178253174,-0.470333963632584,0.0,0.0,0.0,0.0,0.0,0.0,0.0,0.0,0.0
1702252240894495370,433,5076572656,,0.0,0.0,0.0,0.0,0.0,0.0,0.0,0.0,0.0,0.0,0.0,0.0,0.0,0.0,0.0,0.0,0.0,0.0,0.0,0.0,0.0,0.0,0.0,0.0,0.0,-0.335155367851257,-9.70278835296631,-0.477686583995819,0.0,0.0,0.0,0.0,0.0,0.0,0.0,0.0,0.0
1702252240896546632,434,5078583002,,0.0,0.0,0.0,0.0,0.0,0.0,0.0,0.0,0.0,0.0,0.0,0.0,0.0,0.0,0.0,0.0,0.0,0.0,0.0,0.0,0.0,0.0,0.0,0.0,0.0,-0.329610079526901,-9.71188259124756,-0.486518174409866,0.0,0.0,0.0,0.0,0.0,0.0,0.0,0.0,0.0
1702252240898350896,435,5089114427,,0.0,0.0,0.0,0.0,0.0,0.0,0.0,0.0,0.0,0.0,0.0,0.0,0.0,0.0,0.0,0.0,0.0,0.0,0.0,0.0,0.0,0.0,0.0,0.0,0.0,-0.324496269226074,-9.71089267730713,-0.475666999816895,0.0,0.0,0.0,0.0,0.0,0.0,0.0,0.0,0.0
1702252240899991299,436,5098167657,,0.0,0.0,0.0,0.0,0.0,0.0,0.0,0.0,0.0,0.0,0.0,0.0,0.0,0.0,0.0,0.0,0.0,0.0,0.0,0.0,0.0,0.0,0.0,0.0,0.0,-0.334154427051544,-9.72474479675293,-0.463173866271973,0.0,0.0,0.0,0.0,0.0,0.0,0.0,0.0,0.0
1702252240904498930,437,5109252452,,0.0,0.0,0.0,0.0,0.0,0.0,0.0,0.0,0.0,0.0,0.0,0.0,0.0,0.0,0.0,0.0,0.0,0.0,0.0,0.0,0.0,0.0,0.0,0.0,0.0,-0.339994072914124,-9.70786094665527,-0.474054515361786,0.0,0.0,0.0,0.0,0.0,0.0,0.0,0.0,0.0
1702252240905842026,438,5119567394,,0.0,0.0,0.0,0.0,0.0,0.0,0.0,0.0,0.0,0.0,0.0,0.0,0.0,0.0,0.0,0.0,0.0,0.0,0.0,0.0,0.0,0.0,0.0,0.0,0.0,-0.330942839384079,-9.7216968536377,-0.473484218120575,0.0,0.0,0.0,0.0,0.0,0.0,0.0,0.0,0.0
1702252240907865415,439,5131178855,,0.0,0.0,0.0,0.0,0.0,0.0,0.0,0.0,0.0,0.0,0.0,0.0,0.0,0.0,0.0,0.0,0.0,0.0,0.0,0.0,0.0,0.0,0.0,0.0,0.0,-0.325664937496185,-9.71090412139893,-0.467547208070755,0.0,0.0,0.0,0.0,0.0,0.0,0.0,0.0,0.0
1702252240909324193,440,5141670465,,0.0,0.0,0.0,0.0,0.0,0.0,0.0,0.0,0.0,0.0,0.0,0.0,0.0,0.0,0.0,0.0,0.0,0.0,0.0,0.0,0.0,0.0,0.0,0.0,0.0,-0.329499065876007,-9.71594429016113,-0.476035535335541,0.0,0.0,0.0,0.0,0.0,0.0,0.0,0.0,0.0
1702252240910885807,441,5150130033,,0.0,0.0,0.0,0.0,0.0,0.0,0.0,0.0,0.0,0.0,0.0,0.0,0.0,0.0,0.0,0.0,0.0,0.0,0.0,0.0,0.0,0.0,0.0,0.0,0.0,-0.322469800710678,-9.71729278564453,-0.485638707876205,0.0,0.0,0.0,0.0,0.0,0.0,0.0,0.0,0.0
1702252240912470792,442,5158481121,,0.0,0.0,0.0,0.0,0.0,0.0,0.0,0.0,0.0,0.0,0.0,0.0,0.0,0.0,0.0,0.0,0.0,0.0,0.0,0.0,0.0,0.0,0.0,0.0,0.0,-0.32860866189003,-9.71562290191651,-0.469642043113708,0.0,0.0,0.0,0.0,0.0,0.0,0.0,0.0,0.0
1702252240914107899,443,5168470621,,0.0,0.0,0.0,0.0,0.0,0.0,0.0,0.0,0.0,0.0,0.0,0.0,0.0,0.0,0.0,0.0,0.0,0.0,0.0,0.0,0.0,0.0,0.0,0.0,0.0,-0.335207492113113,-9.71122932434082,-0.475658625364304,0.0,0.0,0.0,0.0,0.0,0.0,0.0,0.0,0.0
1702252240915727749,444,5179686069,,0.0,0.0,0.0,0.0,0.0,0.0,0.0,0.0,0.0,0.0,0.0,0.0,0.0,0.0,0.0,0.0,0.0,0.0,0.0,0.0,0.0,0.0,0.0,0.0,0.0,-0.324394971132278,-9.70716953277588,-0.476824015378952,0.0,0.0,0.0,0.0,0.0,0.0,0.0,0.0,0.0
1702252240917092017,445,5188779592,,0.0,0.0,0.0,0.0,0.0,0.0,0.0,0.0,0.0,0.0,0.0,0.0,0.0,0.0,0.0,0.0,0.0,0.0,0.0,0.0,0.0,0.0,0.0,0.0,0.0,-0.335845738649368,-9.71730613708496,-0.47159743309021,0.0,0.0,0.0,0.0,0.0,0.0,0.0,0.0,0.0
1702252240919543545,446,5198549985,,0.0,0.0,0.0,0.0,0.0,0.0,0.0,0.0,0.0,0.0,0.0,0.0,0.0,0.0,0.0,0.0,0.0,0.0,0.0,0.0,0.0,0.0,0.0,0.0,0.0,-0.331524014472961,-9.71392917633057,-0.472974628210068,0.0,0.0,0.0,0.0,0.0,0.0,0.0,0.0,0.0
1702252240921470589,447,5209470033,,0.0,0.0,0.0,0.0,0.0,0.0,0.0,0.0,0.0,0.0,0.0,0.0,0.0,0.0,0.0,0.0,0.0,0.0,0.0,0.0,0.0,0.0,0.0,0.0,0.0,-0.333246111869812,-9.71257972717285,-0.470620304346085,0.0,0.0,0.0,0.0,0.0,0.0,0.0,0.0,0.0
1702252240923461589,448,5220264434,,0.0,0.0,0.0,0.0,0.0,0.0,0.0,0.0,0.0,0.0,0.0,0.0,0.0,0.0,0.0,0.0,0.0,0.0,0.0,0.0,0.0,0.0,0.0,0.0,0.0,-0.329841673374176,-9.71427440643311,-0.471896946430206,0.0,0.0,0.0,0.0,0.0,0.0,0.0,0.0,0.0
1702252240925610377,449,5228648900,,0.0,0.0,0.0,0.0,0.0,0.0,0.0,0.0,0.0,0.0,0.0,0.0,0.0,0.0,0.0,0.0,0.0,0.0,0.0,0.0,0.0,0.0,0.0,0.0,0.0,-0.313165873289108,-9.70818519592285,-0.478350281715393,0.0,0.0,0.0,0.0,0.0,0.0,0.0,0.0,0.0
1702252240927854352,450,5240670680,,0.0,0.0,0.0,0.0,0.0,0.0,0.0,0.0,0.0,0.0,0.0,0.0,0.0,0.0,0.0,0.0,0.0,0.0,0.0,0.0,0.0,0.0,0.0,0.0,0.0,-0.324287325143814,-9.70785903930664,-0.472008585929871,0.0,0.0,0.0,0.0,0.0,0.0,0.0,0.0,0.0
1702252240929602243,451,5249274015,,0.0,0.0,0.0,0.0,0.0,0.0,0.0,0.0,0.0,0.0,0.0,0.0,0.0,0.0,0.0,0.0,0.0,0.0,0.0,0.0,0.0,0.0,0.0,0.0,0.0,-0.335181921720505,-9.71663475036621,-0.469671249389648,0.0,0.0,0.0,0.0,0.0,0.0,0.0,0.0,0.0
1702252240931108139,452,5259235620,,0.0,0.0,0.0,0.0,0.0,0.0,0.0,0.0,0.0,0.0,0.0,0.0,0.0,0.0,0.0,0.0,0.0,0.0,0.0,0.0,0.0,0.0,0.0,0.0,0.0,-0.31947273015976,-9.70986747741699,-0.48163178563118,0.0,0.0,0.0,0.0,0.0,0.0,0.0,0.0,0.0
1702252240933044471,453,5268727064,,0.0,0.0,0.0,0.0,0.0,0.0,0.0,0.0,0.0,0.0,0.0,0.0,0.0,0.0,0.0,0.0,0.0,0.0,0.0,0.0,0.0,0.0,0.0,0.0,0.0,-0.317408084869385,-9.70920467376709,-0.473946571350098,0.0,0.0,0.0,0.0,0.0,0.0,0.0,0.0,0.0
1702252240934773128,454,5280175447,,0.0,0.0,0.0,0.0,0.0,0.0,0.0,0.0,0.0,0.0,0.0,0.0,0.0,0.0,0.0,0.0,0.0,0.0,0.0,0.0,0.0,0.0,0.0,0.0,0.0,-0.328891813755035,-9.72809982299805,-0.475972324609757,0.0,0.0,0.0,0.0,0.0,0.0,0.0,0.0,0.0
1702252240936454469,455,5289771556,,0.0,0.0,0.0,0.0,0.0,0.0,0.0,0.0,0.0,0.0,0.0,0.0,0.0,0.0,0.0,0.0,0.0,0.0,0.0,0.0,0.0,0.0,0.0,0.0,0.0,-0.326808929443359,-9.70987796783447,-0.472592145204544,0.0,0.0,0.0,0.0,0.0,0.0,0.0,0.0,0.0
1702252240938238615,456,5300953388,,0.0,0.0,0.0,0.0,0.0,0.0,0.0,0.0,0.0,0.0,0.0,0.0,0.0,0.0,0.0,0.0,0.0,0.0,0.0,0.0,0.0,0.0,0.0,0.0,0.0,-0.329764485359192,-9.70888614654541,-0.463769972324371,0.0,0.0,0.0,0.0,0.0,0.0,0.0,0.0,0.0
1702252240940033680,457,5308417081,,0.0,0.0,0.0,0.0,0.0,0.0,0.0,0.0,0.0,0.0,0.0,0.0,0.0,0.0,0.0,0.0,0.0,0.0,0.0,0.0,0.0,0.0,0.0,0.0,0.0,-0.325700163841248,-9.72068786621094,-0.466886848211289,0.0,0.0,0.0,0.0,0.0,0.0,0.0,0.0,0.0
1702252240941490478,458,5318942546,,0.0,0.0,0.0,0.0,0.0,0.0,0.0,0.0,0.0,0.0,0.0,0.0,0.0,0.0,0.0,0.0,0.0,0.0,0.0,0.0,0.0,0.0,0.0,0.0,0.0,-0.326631873846054,-9.71597003936768,-0.465198278427124,0.0,0.0,0.0,0.0,0.0,0.0,0.0,0.0,0.0
1702252240942843626,459,5328413009,,0.0,0.0,0.0,0.0,0.0,0.0,0.0,0.0,0.0,0.0,0.0,0.0,0.0,0.0,0.0,0.0,0.0,0.0,0.0,0.0,0.0,0.0,0.0,0.0,0.0,-0.325484097003937,-9.71124172210694,-0.471831500530243,0.0,0.0,0.0,0.0,0.0,0.0,0.0,0.0,0.0
1702252240944585310,460,5338361978,,0.0,0.0,0.0,0.0,0.0,0.0,0.0,0.0,0.0,0.0,0.0,0.0,0.0,0.0,0.0,0.0,0.0,0.0,0.0,0.0,0.0,0.0,0.0,0.0,0.0,-0.320406407117844,-9.71630382537842,-0.46659716963768,0.0,0.0,0.0,0.0,0.0,0.0,0.0,0.0,0.0
1702252240946475231,461,5349334001,,0.0,0.0,0.0,0.0,0.0,0.0,0.0,0.0,0.0,0.0,0.0,0.0,0.0,0.0,0.0,0.0,0.0,0.0,0.0,0.0,0.0,0.0,0.0,0.0,0.0,-0.335901647806168,-9.71562957763672,-0.468451350927353,0.0,0.0,0.0,0.0,0.0,0.0,0.0,0.0,0.0
1702252240948244529,462,5359344005,,0.0,0.0,0.0,0.0,0.0,0.0,0.0,0.0,0.0,0.0,0.0,0.0,0.0,0.0,0.0,0.0,0.0,0.0,0.0,0.0,0.0,0.0,0.0,0.0,0.0,-0.321948081254959,-9.70819854736328,-0.461973428726196,0.0,0.0,0.0,0.0,0.0,0.0,0.0,0.0,0.0
1702252240950313763,463,5368169546,,0.0,0.0,0.0,0.0,0.0,0.0,0.0,0.0,0.0,0.0,0.0,0.0,0.0,0.0,0.0,0.0,0.0,0.0,0.0,0.0,0.0,0.0,0.0,0.0,0.0,-0.329084128141403,-9.71156883239746,-0.474642217159271,0.0,0.0,0.0,0.0,0.0,0.0,0.0,0.0,0.0
1702252240952519412,464,5382817506,,0.0,0.0,0.0,0.0,0.0,0.0,0.0,0.0,0.0,0.0,0.0,0.0,0.0,0.0,0.0,0.0,0.0,0.0,0.0,0.0,0.0,0.0,0.0,0.0,0.0,-0.324514657258987,-9.71965980529785,-0.475762546062469,0.0,0.0,0.0,0.0,0.0,0.0,0.0,0.0,0.0
1702252240954336883,465,5389397621,,0.0,0.0,0.0,0.0,0.0,0.0,0.0,0.0,0.0,0.0,0.0,0.0,0.0,0.0,0.0,0.0,0.0,0.0,0.0,0.0,0.0,0.0,0.0,0.0,0.0,-0.325249314308167,-9.7088623046875,-0.481733739376068,0.0,0.0,0.0,0.0,0.0,0.0,0.0,0.0,0.0
1702252240956413985,466,5399933099,,0.0,0.0,0.0,0.0,0.0,0.0,0.0,0.0,0.0,0.0,0.0,0.0,0.0,0.0,0.0,0.0,0.0,0.0,0.0,0.0,0.0,0.0,0.0,0.0,0.0,-0.332701772451401,-9.70550155639648,-0.472221523523331,0.0,0.0,0.0,0.0,0.0,0.0,0.0,0.0,0.0
1702252240958242923,467,5408907890,,0.0,0.0,0.0,0.0,0.0,0.0,0.0,0.0,0.0,0.0,0.0,0.0,0.0,0.0,0.0,0.0,0.0,0.0,0.0,0.0,0.0,0.0,0.0,0.0,0.0,-0.326943248510361,-9.71392917633057,-0.47844997048378,0.0,0.0,0.0,0.0,0.0,0.0,0.0,0.0,0.0
1702252240960138185,468,5420579910,,0.0,0.0,0.0,0.0,0.0,0.0,0.0,0.0,0.0,0.0,0.0,0.0,0.0,0.0,0.0,0.0,0.0,0.0,0.0,0.0,0.0,0.0,0.0,0.0,0.0,-0.327422529459,-9.7152853012085,-0.467903912067413,0.0,0.0,0.0,0.0,0.0,0.0,0.0,0.0,0.0
1702252240962064527,469,5428360223,,0.0,0.0,0.0,0.0,0.0,0.0,0.0,0.0,0.0,0.0,0.0,0.0,0.0,0.0,0.0,0.0,0.0,0.0,0.0,0.0,0.0,0.0,0.0,0.0,0.0,-0.327445536851883,-9.70448398590088,-0.470344245433807,0.0,0.0,0.0,0.0,0.0,0.0,0.0,0.0,0.0
1702252240963837619,470,5443643331,,0.0,0.0,0.0,0.0,0.0,0.0,0.0,0.0,0.0,0.0,0.0,0.0,0.0,0.0,0.0,0.0,0.0,0.0,0.0,0.0,0.0,0.0,0.0,0.0,0.0,-0.332742363214493,-9.70987987518311,-0.479258239269257,0.0,0.0,0.0,0.0,0.0,0.0,0.0,0.0,0.0
1702252240965645101,471,5448358297,,0.0,0.0,0.0,0.0,0.0,0.0,0.0,0.0,0.0,0.0,0.0,0.0,0.0,0.0,0.0,0.0,0.0,0.0,0.0,0.0,0.0,0.0,0.0,0.0,0.0,-0.33523240685463,-9.71122932434082,-0.478907108306885,0.0,0.0,0.0,0.0,0.0,0.0,0.0,0.0,0.0
1702252240967066258,472,5468622684,,0.0,0.0,0.0,0.0,0.0,0.0,0.0,0.0,0.0,0.0,0.0,0.0,0.0,0.0,0.0,0.0,0.0,0.0,0.0,0.0,0.0,0.0,0.0,0.0,0.0,-0.328348219394684,-9.72000980377197,-0.472236335277557,0.0,0.0,0.0,0.0,0.0,0.0,0.0,0.0,0.0
1702252240968887027,473,5470437288,,0.0,0.0,0.0,0.0,0.0,0.0,0.0,0.0,0.0,0.0,0.0,0.0,0.0,0.0,0.0,0.0,0.0,0.0,0.0,0.0,0.0,0.0,0.0,0.0,0.0,-0.323293268680573,-9.71021366119385,-0.473449289798737,0.0,0.0,0.0,0.0,0.0,0.0,0.0,0.0,0.0
1702252240970709685,474,5479265928,,0.0,0.0,0.0,0.0,0.0,0.0,0.0,0.0,0.0,0.0,0.0,0.0,0.0,0.0,0.0,0.0,0.0,0.0,0.0,0.0,0.0,0.0,0.0,0.0,0.0,-0.326135098934174,-9.71428489685059,-0.470421522855759,0.0,0.0,0.0,0.0,0.0,0.0,0.0,0.0,0.0
1702252240972586570,475,5490481138,,0.0,0.0,0.0,0.0,0.0,0.0,0.0,0.0,0.0,0.0,0.0,0.0,0.0,0.0,0.0,0.0,0.0,0.0,0.0,0.0,0.0,0.0,0.0,0.0,0.0,-0.330497264862061,-9.71696376800537,-0.475987106561661,0.0,0.0,0.0,0.0,0.0,0.0,0.0,0.0,0.0
1702252240974277500,476,5506929636,,0.0,0.0,0.0,0.0,0.0,0.0,0.0,0.0,0.0,0.0,0.0,0.0,0.0,0.0,0.0,0.0,0.0,0.0,0.0,0.0,0.0,0.0,0.0,0.0,0.0,-0.33644637465477,-9.71225357055664,-0.470035016536713,0.0,0.0,0.0,0.0,0.0,0.0,0.0,0.0,0.0
1702252240975969314,477,5513416767,,0.0,0.0,0.0,0.0,0.0,0.0,0.0,0.0,0.0,0.0,0.0,0.0,0.0,0.0,0.0,0.0,0.0,0.0,0.0,0.0,0.0,0.0,0.0,0.0,0.0,-0.326012879610062,-9.70989036560059,-0.466822654008865,0.0,0.0,0.0,0.0,0.0,0.0,0.0,0.0,0.0
1702252240977636792,478,5519388914,,0.0,0.0,0.0,0.0,0.0,0.0,0.0,0.0,0.0,0.0,0.0,0.0,0.0,0.0,0.0,0.0,0.0,0.0,0.0,0.0,0.0,0.0,0.0,0.0,0.0,-0.33187535405159,-9.70953750610352,-0.477623581886292,0.0,0.0,0.0,0.0,0.0,0.0,0.0,0.0,0.0
1702252240979460024,479,5530280590,,0.0,0.0,0.0,0.0,0.0,0.0,0.0,0.0,0.0,0.0,0.0,0.0,0.0,0.0,0.0,0.0,0.0,0.0,0.0,0.0,0.0,0.0,0.0,0.0,0.0,-0.314108639955521,-9.71055126190186,-0.476372808218002,0.0,0.0,0.0,0.0,0.0,0.0,0.0,0.0,0.0
1702252240981436615,480,5540331840,,0.0,0.0,0.0,0.0,0.0,0.0,0.0,0.0,0.0,0.0,0.0,0.0,0.0,0.0,0.0,0.0,0.0,0.0,0.0,0.0,0.0,0.0,0.0,0.0,0.0,-0.327695488929749,-9.7051591873169,-0.474353969097137,0.0,0.0,0.0,0.0,0.0,0.0,0.0,0.0,0.0
1702252240983725234,481,5553714990,,0.0,0.0,0.0,0.0,0.0,0.0,0.0,0.0,0.0,0.0,0.0,0.0,0.0,0.0,0.0,0.0,0.0,0.0,0.0,0.0,0.0,0.0,0.0,0.0,0.0,-0.326821535825729,-9.70786666870117,-0.469802141189575,0.0,0.0,0.0,0.0,0.0,0.0,0.0,0.0,0.0
1702252240985704757,482,5559669733,,0.0,0.0,0.0,0.0,0.0,0.0,0.0,0.0,0.0,0.0,0.0,0.0,0.0,0.0,0.0,0.0,0.0,0.0,0.0,0.0,0.0,0.0,0.0,0.0,0.0,-0.325190871953964,-9.70685958862305,-0.467311918735504,0.0,0.0,0.0,0.0,0.0,0.0,0.0,0.0,0.0
1702252240987882561,483,5570040702,,0.0,0.0,0.0,0.0,0.0,0.0,0.0,0.0,0.0,0.0,0.0,0.0,0.0,0.0,0.0,0.0,0.0,0.0,0.0,0.0,0.0,0.0,0.0,0.0,0.0,-0.324685305356979,-9.70684242248535,-0.474612772464752,0.0,0.0,0.0,0.0,0.0,0.0,0.0,0.0,0.0
1702252240989486837,484,5579939603,,0.0,0.0,0.0,0.0,0.0,0.0,0.0,0.0,0.0,0.0,0.0,0.0,0.0,0.0,0.0,0.0,0.0,0.0,0.0,0.0,0.0,0.0,0.0,0.0,0.0,-0.329201281070709,-9.71359729766846,-0.467900007963181,0.0,0.0,0.0,0.0,0.0,0.0,0.0,0.0,0.0
1702252240991072217,485,5588554859,,0.0,0.0,0.0,0.0,0.0,0.0,0.0,0.0,0.0,0.0,0.0,0.0,0.0,0.0,0.0,0.0,0.0,0.0,0.0,0.0,0.0,0.0,0.0,0.0,0.0,-0.326692909002304,-9.71696853637695,-0.474172741174698,0.0,0.0,0.0,0.0,0.0,0.0,0.0,0.0,0.0
1702252240993116194,486,5599998712,,0.0,0.0,0.0,0.0,0.0,0.0,0.0,0.0,0.0,0.0,0.0,0.0,0.0,0.0,0.0,0.0,0.0,0.0,0.0,0.0,0.0,0.0,0.0,0.0,0.0,-0.319939166307449,-9.71797370910645,-0.472744822502136,0.0,0.0,0.0,0.0,0.0,0.0,0.0,0.0,0.0
1702252240995051534,487,5608719587,,0.0,0.0,0.0,0.0,0.0,0.0,0.0,0.0,0.0,0.0,0.0,0.0,0.0,0.0,0.0,0.0,0.0,0.0,0.0,0.0,0.0,0.0,0.0,0.0,0.0,-0.337389171123505,-9.71865558624268,-0.475482910871506,0.0,0.0,0.0,0.0,0.0,0.0,0.0,0.0,0.0
1702252240996717965,488,5623392343,,0.0,0.0,0.0,0.0,0.0,0.0,0.0,0.0,0.0,0.0,0.0,0.0,0.0,0.0,0.0,0.0,0.0,0.0,0.0,0.0,0.0,0.0,0.0,0.0,0.0,-0.330909490585327,-9.71190166473389,-0.47752046585083,0.0,0.0,0.0,0.0,0.0,0.0,0.0,0.0,0.0
1702252240998271324,489,5629645824,,0.0,0.0,0.0,0.0,0.0,0.0,0.0,0.0,0.0,0.0,0.0,0.0,0.0,0.0,0.0,0.0,0.0,0.0,0.0,0.0,0.0,0.0,0.0,0.0,0.0,-0.327057152986527,-9.71764945983887,-0.472464591264725,0.0,0.0,0.0,0.0,0.0,0.0,0.0,0.0,0.0
1702252240999896937,490,5641225099,,0.0,0.0,0.0,0.0,0.0,0.0,0.0,0.0,0.0,0.0,0.0,0.0,0.0,0.0,0.0,0.0,0.0,0.0,0.0,0.0,0.0,0.0,0.0,0.0,0.0,-0.321509093046188,-9.71933269500733,-0.474327892065048,0.0,0.0,0.0,0.0,0.0,0.0,0.0,0.0,0.0
1702252241001291488,491,5649799108,,0.0,0.0,0.0,0.0,0.0,0.0,0.0,0.0,0.0,0.0,0.0,0.0,0.0,0.0,0.0,0.0,0.0,0.0,0.0,0.0,0.0,0.0,0.0,0.0,0.0,-0.325549095869064,-9.71900177001953,-0.473631650209427,0.0,0.0,0.0,0.0,0.0,0.0,0.0,0.0,0.0
1702252241003167794,492,5658782243,,0.0,0.0,0.0,0.0,0.0,0.0,0.0,0.0,0.0,0.0,0.0,0.0,0.0,0.0,0.0,0.0,0.0,0.0,0.0,0.0,0.0,0.0,0.0,0.0,0.0,-0.329423367977142,-9.71933841705322,-0.46685379743576,0.0,0.0,0.0,0.0,0.0,0.0,0.0,0.0,0.0
1702252241004894361,493,5668523073,,0.0,0.0,0.0,0.0,0.0,0.0,0.0,0.0,0.0,0.0,0.0,0.0,0.0,0.0,0.0,0.0,0.0,0.0,0.0,0.0,0.0,0.0,0.0,0.0,0.0,-0.324765413999558,-9.69838809967041,-0.489129722118378,0.0,0.0,0.0,0.0,0.0,0.0,0.0,0.0,0.0
1702252241006578126,494,5678334236,,0.0,0.0,0.0,0.0,0.0,0.0,0.0,0.0,0.0,0.0,0.0,0.0,0.0,0.0,0.0,0.0,0.0,0.0,0.0,0.0,0.0,0.0,0.0,0.0,0.0,-0.322603851556778,-9.71157455444336,-0.465603649616241,0.0,0.0,0.0,0.0,0.0,0.0,0.0,0.0,0.0
1702252241008328610,495,5690107583,,0.0,0.0,0.0,0.0,0.0,0.0,0.0,0.0,0.0,0.0,0.0,0.0,0.0,0.0,0.0,0.0,0.0,0.0,0.0,0.0,0.0,0.0,0.0,0.0,0.0,-0.327308297157288,-9.70718860626221,-0.468916118144989,0.0,0.0,0.0,0.0,0.0,0.0,0.0,0.0,0.0
1702252241010196193,496,5698441028,,0.0,0.0,0.0,0.0,0.0,0.0,0.0,0.0,0.0,0.0,0.0,0.0,0.0,0.0,0.0,0.0,0.0,0.0,0.0,0.0,0.0,0.0,0.0,0.0,0.0,-0.328657507896423,-9.71730518341065,-0.471085369586945,0.0,0.0,0.0,0.0,0.0,0.0,0.0,0.0,0.0
1702252241012194839,497,5709176301,,0.0,0.0,0.0,0.0,0.0,0.0,0.0,0.0,0.0,0.0,0.0,0.0,0.0,0.0,0.0,0.0,0.0,0.0,0.0,0.0,0.0,0.0,0.0,0.0,0.0,-0.327160000801086,-9.70953941345215,-0.473990857601166,0.0,0.0,0.0,0.0,0.0,0.0,0.0,0.0,0.0
1702252241013992194,498,5719092607,,0.0,0.0,0.0,0.0,0.0,0.0,0.0,0.0,0.0,0.0,0.0,0.0,0.0,0.0,0.0,0.0,0.0,0.0,0.0,0.0,0.0,0.0,0.0,0.0,0.0,-0.329999715089798,-9.71596813201904,-0.466887563467026,0.0,0.0,0.0,0.0,0.0,0.0,0.0,0.0,0.0
1702252241016185650,499,5729164600,,0.0,0.0,0.0,0.0,0.0,0.0,0.0,0.0,0.0,0.0,0.0,0.0,0.0,0.0,0.0,0.0,0.0,0.0,0.0,0.0,0.0,0.0,0.0,0.0,0.0,-0.328755468130112,-9.70786094665527,-0.47021034359932,0.0,0.0,0.0,0.0,0.0,0.0,0.0,0.0,0.0
1702252241018498612,500,5739780187,,0.0,0.0,0.0,0.0,0.0,0.0,0.0,0.0,0.0,0.0,0.0,0.0,0.0,0.0,0.0,0.0,0.0,0.0,0.0,0.0,0.0,0.0,0.0,0.0,0.0,-0.337162375450134,-9.70516014099121,-0.470934391021729,0.0,0.0,0.0,0.0,0.0,0.0,0.0,0.0,0.0
1702252241020598616,501,5749553918,,0.0,0.0,0.0,0.0,0.0,0.0,0.0,0.0,0.0,0.0,0.0,0.0,0.0,0.0,0.0,0.0,0.0,0.0,0.0,0.0,0.0,0.0,0.0,0.0,0.0,-0.335119932889938,-9.7196798324585,-0.467882961034775,0.0,0.0,0.0,0.0,0.0,0.0,0.0,0.0,0.0
1702252241022189416,502,5759760379,,0.0,0.0,0.0,0.0,0.0,0.0,0.0,0.0,0.0,0.0,0.0,0.0,0.0,0.0,0.0,0.0,0.0,0.0,0.0,0.0,0.0,0.0,0.0,0.0,0.0,-0.329051345586777,-9.7105598449707,-0.471657425165176,0.0,0.0,0.0,0.0,0.0,0.0,0.0,0.0,0.0
1702252241024140084,503,5769809961,,0.0,0.0,0.0,0.0,0.0,0.0,0.0,0.0,0.0,0.0,0.0,0.0,0.0,0.0,0.0,0.0,0.0,0.0,0.0,0.0,0.0,0.0,0.0,0.0,0.0,-0.325975060462952,-9.71022510528565,-0.474841475486755,0.0,0.0,0.0,0.0,0.0,0.0,0.0,0.0,0.0
1702252241026218244,504,5778433561,,0.0,0.0,0.0,0.0,0.0,0.0,0.0,0.0,0.0,0.0,0.0,0.0,0.0,0.0,0.0,0.0,0.0,0.0,0.0,0.0,0.0,0.0,0.0,0.0,0.0,-0.334791332483292,-9.71458721160889,-0.483047485351562,0.0,0.0,0.0,0.0,0.0,0.0,0.0,0.0,0.0
1702252241028232477,505,5791829109,,0.0,0.0,0.0,0.0,0.0,0.0,0.0,0.0,0.0,0.0,0.0,0.0,0.0,0.0,0.0,0.0,0.0,0.0,0.0,0.0,0.0,0.0,0.0,0.0,0.0,-0.31298553943634,-9.70988178253174,-0.472291797399521,0.0,0.0,0.0,0.0,0.0,0.0,0.0,0.0,0.0
1702252241030087161,506,5809102535,,0.0,0.0,0.0,0.0,0.0,0.0,0.0,0.0,0.0,0.0,0.0,0.0,0.0,0.0,0.0,0.0,0.0,0.0,0.0,0.0,0.0,0.0,0.0,0.0,0.0,-0.321778535842896,-9.71190357208252,-0.473044723272324,0.0,0.0,0.0,0.0,0.0,0.0,0.0,0.0,0.0
1702252241031580951,507,5813673019,,0.0,0.0,0.0,0.0,0.0,0.0,0.0,0.0,0.0,0.0,0.0,0.0,0.0,0.0,0.0,0.0,0.0,0.0,0.0,0.0,0.0,0.0,0.0,0.0,0.0,-0.332792371511459,-9.71966648101807,-0.47372967004776,0.0,0.0,0.0,0.0,0.0,0.0,0.0,0.0,0.0
1702252241033042542,508,5819856643,,0.0,0.0,0.0,0.0,0.0,0.0,0.0,0.0,0.0,0.0,0.0,0.0,0.0,0.0,0.0,0.0,0.0,0.0,0.0,0.0,0.0,0.0,0.0,0.0,0.0,-0.322623133659363,-9.7146110534668,-0.467010587453842,0.0,0.0,0.0,0.0,0.0,0.0,0.0,0.0,0.0
1702252241034605258,509,5829230308,,0.0,0.0,0.0,0.0,0.0,0.0,0.0,0.0,0.0,0.0,0.0,0.0,0.0,0.0,0.0,0.0,0.0,0.0,0.0,0.0,0.0,0.0,0.0,0.0,0.0,-0.328412979841232,-9.70584487915039,-0.469771534204483,0.0,0.0,0.0,0.0,0.0,0.0,0.0,0.0,0.0
1702252241038964788,510,5839446306,,0.0,0.0,0.0,0.0,0.0,0.0,0.0,0.0,0.0,0.0,0.0,0.0,0.0,0.0,0.0,0.0,0.0,0.0,0.0,0.0,0.0,0.0,0.0,0.0,0.0,-0.331288725137711,-9.71089267730713,-0.472677081823349,0.0,0.0,0.0,0.0,0.0,0.0,0.0,0.0,0.0
1702252241040632806,511,5849734783,,0.0,0.0,0.0,0.0,0.0,0.0,0.0,0.0,0.0,0.0,0.0,0.0,0.0,0.0,0.0,0.0,0.0,0.0,0.0,0.0,0.0,0.0,0.0,0.0,0.0,-0.316976457834244,-9.71054744720459,-0.474358081817627,0.0,0.0,0.0,0.0,0.0,0.0,0.0,0.0,0.0
1702252241042214896,512,5859413623,,0.0,0.0,0.0,0.0,0.0,0.0,0.0,0.0,0.0,0.0,0.0,0.0,0.0,0.0,0.0,0.0,0.0,0.0,0.0,0.0,0.0,0.0,0.0,0.0,0.0,-0.325039267539978,-9.70920467376709,-0.475245654582977,0.0,0.0,0.0,0.0,0.0,0.0,0.0,0.0,0.0
1702252241043919048,513,5868587970,,0.0,0.0,0.0,0.0,0.0,0.0,0.0,0.0,0.0,0.0,0.0,0.0,0.0,0.0,0.0,0.0,0.0,0.0,0.0,0.0,0.0,0.0,0.0,0.0,0.0,-0.333217144012451,-9.71798133850098,-0.472542554140091,0.0,0.0,0.0,0.0,0.0,0.0,0.0,0.0,0.0
1702252241045700725,514,5878722667,,0.0,0.0,0.0,0.0,0.0,0.0,0.0,0.0,0.0,0.0,0.0,0.0,0.0,0.0,0.0,0.0,0.0,0.0,0.0,0.0,0.0,0.0,0.0,0.0,0.0,-0.323967784643173,-9.70583724975586,-0.467238396406174,0.0,0.0,0.0,0.0,0.0,0.0,0.0,0.0,0.0
1702252241048014962,515,5888853549,,0.0,0.0,0.0,0.0,0.0,0.0,0.0,0.0,0.0,0.0,0.0,0.0,0.0,0.0,0.0,0.0,0.0,0.0,0.0,0.0,0.0,0.0,0.0,0.0,0.0,-0.324623346328735,-9.70583534240723,-0.470904916524887,0.0,0.0,0.0,0.0,0.0,0.0,0.0,0.0,0.0
1702252241050182863,516,5898573160,,0.0,0.0,0.0,0.0,0.0,0.0,0.0,0.0,0.0,0.0,0.0,0.0,0.0,0.0,0.0,0.0,0.0,0.0,0.0,0.0,0.0,0.0,0.0,0.0,0.0,-0.330636382102966,-9.71222496032715,-0.482737839221954,0.0,0.0,0.0,0.0,0.0,0.0,0.0,0.0,0.0
1702252241051941799,517,5908406734,,0.0,0.0,0.0,0.0,0.0,0.0,0.0,0.0,0.0,0.0,0.0,0.0,0.0,0.0,0.0,0.0,0.0,0.0,0.0,0.0,0.0,0.0,0.0,0.0,0.0,-0.324210733175278,-9.71663570404053,-0.468589544296265,0.0,0.0,0.0,0.0,0.0,0.0,0.0,0.0,0.0
1702252241053583197,518,5918465852,,0.0,0.0,0.0,0.0,0.0,0.0,0.0,0.0,0.0,0.0,0.0,0.0,0.0,0.0,0.0,0.0,0.0,0.0,0.0,0.0,0.0,0.0,0.0,0.0,0.0,-0.328101307153702,-9.71663188934326,-0.474866807460785,0.0,0.0,0.0,0.0,0.0,0.0,0.0,0.0,0.0
1702252241055276312,519,5928686618,,0.0,0.0,0.0,0.0,0.0,0.0,0.0,0.0,0.0,0.0,0.0,0.0,0.0,0.0,0.0,0.0,0.0,0.0,0.0,0.0,0.0,0.0,0.0,0.0,0.0,-0.331583142280579,-9.7132568359375,-0.472926259040833,0.0,0.0,0.0,0.0,0.0,0.0,0.0,0.0,0.0
1702252241056605577,520,5939132452,,0.0,0.0,0.0,0.0,0.0,0.0,0.0,0.0,0.0,0.0,0.0,0.0,0.0,0.0,0.0,0.0,0.0,0.0,0.0,0.0,0.0,0.0,0.0,0.0,0.0,-0.326311439275742,-9.71562004089355,-0.475332289934158,0.0,0.0,0.0,0.0,0.0,0.0,0.0,0.0,0.0
1702252241058468087,521,5949608564,,0.0,0.0,0.0,0.0,0.0,0.0,0.0,0.0,0.0,0.0,0.0,0.0,0.0,0.0,0.0,0.0,0.0,0.0,0.0,0.0,0.0,0.0,0.0,0.0,0.0,-0.332780510187149,-9.71427726745605,-0.465904831886292,0.0,0.0,0.0,0.0,0.0,0.0,0.0,0.0,0.0
1702252241060623275,522,5959406614,,0.0,0.0,0.0,0.0,0.0,0.0,0.0,0.0,0.0,0.0,0.0,0.0,0.0,0.0,0.0,0.0,0.0,0.0,0.0,0.0,0.0,0.0,0.0,0.0,0.0,-0.340615570545197,-9.70718288421631,-0.465235441923142,0.0,0.0,0.0,0.0,0.0,0.0,0.0,0.0,0.0
1702252241062668753,523,5968551158,,0.0,0.0,0.0,0.0,0.0,0.0,0.0,0.0,0.0,0.0,0.0,0.0,0.0,0.0,0.0,0.0,0.0,0.0,0.0,0.0,0.0,0.0,0.0,0.0,0.0,-0.328008502721787,-9.72439956665039,-0.474505186080933,0.0,0.0,0.0,0.0,0.0,0.0,0.0,0.0,0.0
1702252241064374686,524,5980056285,,0.0,0.0,0.0,0.0,0.0,0.0,0.0,0.0,0.0,0.0,0.0,0.0,0.0,0.0,0.0,0.0,0.0,0.0,0.0,0.0,0.0,0.0,0.0,0.0,0.0,-0.325326859951019,-9.71157455444336,-0.469949334859848,0.0,0.0,0.0,0.0,0.0,0.0,0.0,0.0,0.0
1702252241065892634,525,5988409996,,0.0,0.0,0.0,0.0,0.0,0.0,0.0,0.0,0.0,0.0,0.0,0.0,0.0,0.0,0.0,0.0,0.0,0.0,0.0,0.0,0.0,0.0,0.0,0.0,0.0,-0.337756901979446,-9.71664905548096,-0.46314662694931,0.0,0.0,0.0,0.0,0.0,0.0,0.0,0.0,0.0
1702252241067250269,526,5999039411,,0.0,0.0,0.0,0.0,0.0,0.0,0.0,0.0,0.0,0.0,0.0,0.0,0.0,0.0,0.0,0.0,0.0,0.0,0.0,0.0,0.0,0.0,0.0,0.0,0.0,-0.32418492436409,-9.71697616577148,-0.475861489772797,0.0,0.0,0.0,0.0,0.0,0.0,0.0,0.0,0.0
1702252241068993821,527,6009891986,,0.0,0.0,0.0,0.0,0.0,0.0,0.0,0.0,0.0,0.0,0.0,0.0,0.0,0.0,0.0,0.0,0.0,0.0,0.0,0.0,0.0,0.0,0.0,0.0,0.0,-0.323821783065796,-9.71425914764404,-0.477654904127121,0.0,0.0,0.0,0.0,0.0,0.0,0.0,0.0,0.0
1702252241070597849,528,6018971443,,0.0,0.0,0.0,0.0,0.0,0.0,0.0,0.0,0.0,0.0,0.0,0.0,0.0,0.0,0.0,0.0,0.0,0.0,0.0,0.0,0.0,0.0,0.0,0.0,0.0,-0.327418148517609,-9.72101879119873,-0.473695397377014,0.0,0.0,0.0,0.0,0.0,0.0,0.0,0.0,0.0
1702252241072147787,529,6029091596,,0.0,0.0,0.0,0.0,0.0,0.0,0.0,0.0,0.0,0.0,0.0,0.0,0.0,0.0,0.0,0.0,0.0,0.0,0.0,0.0,0.0,0.0,0.0,0.0,0.0,-0.335335373878479,-9.72272109985352,-0.462666630744934,0.0,0.0,0.0,0.0,0.0,0.0,0.0,0.0,0.0
1702252241073630215,530,6039260387,,0.0,0.0,0.0,0.0,0.0,0.0,0.0,0.0,0.0,0.0,0.0,0.0,0.0,0.0,0.0,0.0,0.0,0.0,0.0,0.0,0.0,0.0,0.0,0.0,0.0,-0.320116996765137,-9.71495628356934,-0.471164464950562,0.0,0.0,0.0,0.0,0.0,0.0,0.0,0.0,0.0
1702252241075279772,531,6051126003,,0.0,0.0,0.0,0.0,0.0,0.0,0.0,0.0,0.0,0.0,0.0,0.0,0.0,0.0,0.0,0.0,0.0,0.0,0.0,0.0,0.0,0.0,0.0,0.0,0.0,-0.332546710968018,-9.70482349395752,-0.474472284317017,0.0,0.0,0.0,0.0,0.0,0.0,0.0,0.0,0.0
1702252241077475986,532,6059919834,,0.0,0.0,0.0,0.0,0.0,0.0,0.0,0.0,0.0,0.0,0.0,0.0,0.0,0.0,0.0,0.0,0.0,0.0,0.0,0.0,0.0,0.0,0.0,0.0,0.0,-0.332387953996658,-9.70145130157471,-0.468438625335693,0.0,0.0,0.0,0.0,0.0,0.0,0.0,0.0,0.0
1702252241079528429,533,6069149971,,0.0,0.0,0.0,0.0,0.0,0.0,0.0,0.0,0.0,0.0,0.0,0.0,0.0,0.0,0.0,0.0,0.0,0.0,0.0,0.0,0.0,0.0,0.0,0.0,0.0,-0.325985163450241,-9.71392917633057,-0.4738909304142,0.0,0.0,0.0,0.0,0.0,0.0,0.0,0.0,0.0
1702252241081695000,534,6079213857,,0.0,0.0,0.0,0.0,0.0,0.0,0.0,0.0,0.0,0.0,0.0,0.0,0.0,0.0,0.0,0.0,0.0,0.0,0.0,0.0,0.0,0.0,0.0,0.0,0.0,-0.330620527267456,-9.71292877197266,-0.466910570859909,0.0,0.0,0.0,0.0,0.0,0.0,0.0,0.0,0.0
1702252241083711647,535,6090527057,,0.0,0.0,0.0,0.0,0.0,0.0,0.0,0.0,0.0,0.0,0.0,0.0,0.0,0.0,0.0,0.0,0.0,0.0,0.0,0.0,0.0,0.0,0.0,0.0,0.0,-0.335774213075638,-9.71529006958008,-0.472885936498642,0.0,0.0,0.0,0.0,0.0,0.0,0.0,0.0,0.0
1702252241085056086,536,6099655866,,0.0,0.0,0.0,0.0,0.0,0.0,0.0,0.0,0.0,0.0,0.0,0.0,0.0,0.0,0.0,0.0,0.0,0.0,0.0,0.0,0.0,0.0,0.0,0.0,0.0,-0.336433261632919,-9.73078918457031,-0.480465352535248,0.0,0.0,0.0,0.0,0.0,0.0,0.0,0.0,0.0
1702252241087105552,537,6108880758,,0.0,0.0,0.0,0.0,0.0,0.0,0.0,0.0,0.0,0.0,0.0,0.0,0.0,0.0,0.0,0.0,0.0,0.0,0.0,0.0,0.0,0.0,0.0,0.0,0.0,-0.319683074951172,-9.70582962036133,-0.471985429525375,0.0,0.0,0.0,0.0,0.0,0.0,0.0,0.0,0.0
1702252241088532934,538,6118793725,,0.0,0.0,0.0,0.0,0.0,0.0,0.0,0.0,0.0,0.0,0.0,0.0,0.0,0.0,0.0,0.0,0.0,0.0,0.0,0.0,0.0,0.0,0.0,0.0,0.0,-0.333882927894592,-9.71393299102783,-0.475862264633179,0.0,0.0,0.0,0.0,0.0,0.0,0.0,0.0,0.0
1702252241089977510,539,6129346132,,0.0,0.0,0.0,0.0,0.0,0.0,0.0,0.0,0.0,0.0,0.0,0.0,0.0,0.0,0.0,0.0,0.0,0.0,0.0,0.0,0.0,0.0,0.0,0.0,0.0,-0.330861806869507,-9.72000503540039,-0.473931491374969,0.0,0.0,0.0,0.0,0.0,0.0,0.0,0.0,0.0
1702252241091491509,540,6138246774,,0.0,0.0,0.0,0.0,0.0,0.0,0.0,0.0,0.0,0.0,0.0,0.0,0.0,0.0,0.0,0.0,0.0,0.0,0.0,0.0,0.0,0.0,0.0,0.0,0.0,-0.337203562259674,-9.72440624237061,-0.471727192401886,0.0,0.0,0.0,0.0,0.0,0.0,0.0,0.0,0.0
1702252241092957002,541,6150900125,,0.0,0.0,0.0,0.0,0.0,0.0,0.0,0.0,0.0,0.0,0.0,0.0,0.0,0.0,0.0,0.0,0.0,0.0,0.0,0.0,0.0,0.0,0.0,0.0,0.0,-0.323848098516464,-9.72302722930908,-0.480120062828064,0.0,0.0,0.0,0.0,0.0,0.0,0.0,0.0,0.0
1702252241094463060,542,6158837080,,0.0,0.0,0.0,0.0,0.0,0.0,0.0,0.0,0.0,0.0,0.0,0.0,0.0,0.0,0.0,0.0,0.0,0.0,0.0,0.0,0.0,0.0,0.0,0.0,0.0,-0.337905764579773,-9.7247314453125,-0.47691735625267,0.0,0.0,0.0,0.0,0.0,0.0,0.0,0.0,0.0
1702252241095890771,543,6168564796,,0.0,0.0,0.0,0.0,0.0,0.0,0.0,0.0,0.0,0.0,0.0,0.0,0.0,0.0,0.0,0.0,0.0,0.0,0.0,0.0,0.0,0.0,0.0,0.0,0.0,-0.322543442249298,-9.70751476287842,-0.472183257341385,0.0,0.0,0.0,0.0,0.0,0.0,0.0,0.0,0.0
1702252241097348902,544,6178993463,,0.0,0.0,0.0,0.0,0.0,0.0,0.0,0.0,0.0,0.0,0.0,0.0,0.0,0.0,0.0,0.0,0.0,0.0,0.0,0.0,0.0,0.0,0.0,0.0,0.0,-0.327831149101257,-9.71630096435547,-0.468280166387558,0.0,0.0,0.0,0.0,0.0,0.0,0.0,0.0,0.0
1702252241098878816,545,6188533544,,0.0,0.0,0.0,0.0,0.0,0.0,0.0,0.0,0.0,0.0,0.0,0.0,0.0,0.0,0.0,0.0,0.0,0.0,0.0,0.0,0.0,0.0,0.0,0.0,0.0,-0.33790135383606,-9.71730995178223,-0.475463330745697,0.0,0.0,0.0,0.0,0.0,0.0,0.0,0.0,0.0
1702252241100290929,546,6201218605,,0.0,0.0,0.0,0.0,0.0,0.0,0.0,0.0,0.0,0.0,0.0,0.0,0.0,0.0,0.0,0.0,0.0,0.0,0.0,0.0,0.0,0.0,0.0,0.0,0.0,-0.31894063949585,-9.72169303894043,-0.468304842710495,0.0,0.0,0.0,0.0,0.0,0.0,0.0,0.0,0.0
1702252241101872705,547,6209344387,,0.0,0.0,0.0,0.0,0.0,0.0,0.0,0.0,0.0,0.0,0.0,0.0,0.0,0.0,0.0,0.0,0.0,0.0,0.0,0.0,0.0,0.0,0.0,0.0,0.0,-0.322067230939865,-9.71492958068848,-0.476137399673462,0.0,0.0,0.0,0.0,0.0,0.0,0.0,0.0,0.0
1702252241103418899,548,6219222784,,0.0,0.0,0.0,0.0,0.0,0.0,0.0,0.0,0.0,0.0,0.0,0.0,0.0,0.0,0.0,0.0,0.0,0.0,0.0,0.0,0.0,0.0,0.0,0.0,0.0,-0.328907698392868,-9.70651531219483,-0.471548914909363,0.0,0.0,0.0,0.0,0.0,0.0,0.0,0.0,0.0
1702252241105014769,549,6229346990,,0.0,0.0,0.0,0.0,0.0,0.0,0.0,0.0,0.0,0.0,0.0,0.0,0.0,0.0,0.0,0.0,0.0,0.0,0.0,0.0,0.0,0.0,0.0,0.0,0.0,-0.318902254104614,-9.71224498748779,-0.470653593540192,0.0,0.0,0.0,0.0,0.0,0.0,0.0,0.0,0.0
1702252241106706172,550,6238477468,,0.0,0.0,0.0,0.0,0.0,0.0,0.0,0.0,0.0,0.0,0.0,0.0,0.0,0.0,0.0,0.0,0.0,0.0,0.0,0.0,0.0,0.0,0.0,0.0,0.0,-0.323156774044037,-9.71662139892578,-0.474726796150208,0.0,0.0,0.0,0.0,0.0,0.0,0.0,0.0,0.0
1702252241108650945,551,6248453140,,0.0,0.0,0.0,0.0,0.0,0.0,0.0,0.0,0.0,0.0,0.0,0.0,0.0,0.0,0.0,0.0,0.0,0.0,0.0,0.0,0.0,0.0,0.0,0.0,0.0,-0.316051185131073,-9.70143795013428,-0.474366307258606,0.0,0.0,0.0,0.0,0.0,0.0,0.0,0.0,0.0
1702252241110727703,552,6259285449,,0.0,0.0,0.0,0.0,0.0,0.0,0.0,0.0,0.0,0.0,0.0,0.0,0.0,0.0,0.0,0.0,0.0,0.0,0.0,0.0,0.0,0.0,0.0,0.0,0.0,-0.323367089033127,-9.71122264862061,-0.475396782159805,0.0,0.0,0.0,0.0,0.0,0.0,0.0,0.0,0.0
1702252241113124972,553,6269164323,,0.0,0.0,0.0,0.0,0.0,0.0,0.0,0.0,0.0,0.0,0.0,0.0,0.0,0.0,0.0,0.0,0.0,0.0,0.0,0.0,0.0,0.0,0.0,0.0,0.0,-0.333545446395874,-9.70618915557862,-0.46038344502449,0.0,0.0,0.0,0.0,0.0,0.0,0.0,0.0,0.0
1702252241115285848,554,6278817176,,0.0,0.0,0.0,0.0,0.0,0.0,0.0,0.0,0.0,0.0,0.0,0.0,0.0,0.0,0.0,0.0,0.0,0.0,0.0,0.0,0.0,0.0,0.0,0.0,0.0,-0.335059463977814,-9.71595764160156,-0.473847508430481,0.0,0.0,0.0,0.0,0.0,0.0,0.0,0.0,0.0
1702252241116844745,555,6288681983,,0.0,0.0,0.0,0.0,0.0,0.0,0.0,0.0,0.0,0.0,0.0,0.0,0.0,0.0,0.0,0.0,0.0,0.0,0.0,0.0,0.0,0.0,0.0,0.0,0.0,-0.337945580482483,-9.70786380767822,-0.475086182355881,0.0,0.0,0.0,0.0,0.0,0.0,0.0,0.0,0.0
1702252241118420634,556,6303350687,,0.0,0.0,0.0,0.0,0.0,0.0,0.0,0.0,0.0,0.0,0.0,0.0,0.0,0.0,0.0,0.0,0.0,0.0,0.0,0.0,0.0,0.0,0.0,0.0,0.0,-0.319967478513718,-9.69636726379395,-0.478799968957901,0.0,0.0,0.0,0.0,0.0,0.0,0.0,0.0,0.0
1702252241120145994,557,6309611558,,0.0,0.0,0.0,0.0,0.0,0.0,0.0,0.0,0.0,0.0,0.0,0.0,0.0,0.0,0.0,0.0,0.0,0.0,0.0,0.0,0.0,0.0,0.0,0.0,0.0,-0.325844407081604,-9.71326541900635,-0.4701207280159,0.0,0.0,0.0,0.0,0.0,0.0,0.0,0.0,0.0
1702252241121600296,558,6319842100,,0.0,0.0,0.0,0.0,0.0,0.0,0.0,0.0,0.0,0.0,0.0,0.0,0.0,0.0,0.0,0.0,0.0,0.0,0.0,0.0,0.0,0.0,0.0,0.0,0.0,-0.323845624923706,-9.71224117279053,-0.472799360752106,0.0,0.0,0.0,0.0,0.0,0.0,0.0,0.0,0.0
1702252241123076770,559,6328837394,,0.0,0.0,0.0,0.0,0.0,0.0,0.0,0.0,0.0,0.0,0.0,0.0,0.0,0.0,0.0,0.0,0.0,0.0,0.0,0.0,0.0,0.0,0.0,0.0,0.0,-0.332230776548386,-9.72102451324463,-0.46923765540123,0.0,0.0,0.0,0.0,0.0,0.0,0.0,0.0,0.0
1702252241124600332,560,6338756322,,0.0,0.0,0.0,0.0,0.0,0.0,0.0,0.0,0.0,0.0,0.0,0.0,0.0,0.0,0.0,0.0,0.0,0.0,0.0,0.0,0.0,0.0,0.0,0.0,0.0,-0.32330858707428,-9.7024507522583,-0.476363360881805,0.0,0.0,0.0,0.0,0.0,0.0,0.0,0.0,0.0
1702252241126028079,561,6349243164,,0.0,0.0,0.0,0.0,0.0,0.0,0.0,0.0,0.0,0.0,0.0,0.0,0.0,0.0,0.0,0.0,0.0,0.0,0.0,0.0,0.0,0.0,0.0,0.0,0.0,-0.314348340034485,-9.71662712097168,-0.475628435611725,0.0,0.0,0.0,0.0,0.0,0.0,0.0,0.0,0.0
1702252241127472614,562,6359810113,,0.0,0.0,0.0,0.0,0.0,0.0,0.0,0.0,0.0,0.0,0.0,0.0,0.0,0.0,0.0,0.0,0.0,0.0,0.0,0.0,0.0,0.0,0.0,0.0,0.0,-0.332223027944565,-9.72778034210205,-0.464178800582886,0.0,0.0,0.0,0.0,0.0,0.0,0.0,0.0,0.0
1702252241128686866,563,6369254350,,0.0,0.0,0.0,0.0,0.0,0.0,0.0,0.0,0.0,0.0,0.0,0.0,0.0,0.0,0.0,0.0,0.0,0.0,0.0,0.0,0.0,0.0,0.0,0.0,0.0,-0.329899877309799,-9.71932220458984,-0.473300039768219,0.0,0.0,0.0,0.0,0.0,0.0,0.0,0.0,0.0
1702252241130591013,564,6379266023,,0.0,0.0,0.0,0.0,0.0,0.0,0.0,0.0,0.0,0.0,0.0,0.0,0.0,0.0,0.0,0.0,0.0,0.0,0.0,0.0,0.0,0.0,0.0,0.0,0.0,-0.335009872913361,-9.7132625579834,-0.473081797361374,0.0,0.0,0.0,0.0,0.0,0.0,0.0,0.0,0.0
1702252241132141305,565,6389599323,,0.0,0.0,0.0,0.0,0.0,0.0,0.0,0.0,0.0,0.0,0.0,0.0,0.0,0.0,0.0,0.0,0.0,0.0,0.0,0.0,0.0,0.0,0.0,0.0,0.0,-0.326214373111725,-9.71089553833008,-0.469691962003708,0.0,0.0,0.0,0.0,0.0,0.0,0.0,0.0,0.0
1702252241133653953,566,6399495363,,0.0,0.0,0.0,0.0,0.0,0.0,0.0,0.0,0.0,0.0,0.0,0.0,0.0,0.0,0.0,0.0,0.0,0.0,0.0,0.0,0.0,0.0,0.0,0.0,0.0,-0.324290066957474,-9.69841003417969,-0.473501712083817,0.0,0.0,0.0,0.0,0.0,0.0,0.0,0.0,0.0
1702252241135077830,567,6409266233,,0.0,0.0,0.0,0.0,0.0,0.0,0.0,0.0,0.0,0.0,0.0,0.0,0.0,0.0,0.0,0.0,0.0,0.0,0.0,0.0,0.0,0.0,0.0,0.0,0.0,-0.331370115280151,-9.71360778808594,-0.467718124389648,0.0,0.0,0.0,0.0,0.0,0.0,0.0,0.0,0.0
1702252241136669521,568,6419620513,,0.0,0.0,0.0,0.0,0.0,0.0,0.0,0.0,0.0,0.0,0.0,0.0,0.0,0.0,0.0,0.0,0.0,0.0,0.0,0.0,0.0,0.0,0.0,0.0,0.0,-0.323916465044022,-9.71562004089355,-0.473348885774612,0.0,0.0,0.0,0.0,0.0,0.0,0.0,0.0,0.0
1702252241138613338,569,6428489446,,0.0,0.0,0.0,0.0,0.0,0.0,0.0,0.0,0.0,0.0,0.0,0.0,0.0,0.0,0.0,0.0,0.0,0.0,0.0,0.0,0.0,0.0,0.0,0.0,0.0,-0.333523809909821,-9.7169771194458,-0.466525077819824,0.0,0.0,0.0,0.0,0.0,0.0,0.0,0.0,0.0
1702252241140579791,570,6439746618,,0.0,0.0,0.0,0.0,0.0,0.0,0.0,0.0,0.0,0.0,0.0,0.0,0.0,0.0,0.0,0.0,0.0,0.0,0.0,0.0,0.0,0.0,0.0,0.0,0.0,-0.333580762147903,-9.71797370910645,-0.475668221712112,0.0,0.0,0.0,0.0,0.0,0.0,0.0,0.0,0.0
1702252241142962946,571,6449784278,,0.0,0.0,0.0,0.0,0.0,0.0,0.0,0.0,0.0,0.0,0.0,0.0,0.0,0.0,0.0,0.0,0.0,0.0,0.0,0.0,0.0,0.0,0.0,0.0,0.0,-0.337352007627487,-9.7247257232666,-0.472065329551697,0.0,0.0,0.0,0.0,0.0,0.0,0.0,0.0,0.0
1702252241145475407,572,6464772939,,0.0,0.0,0.0,0.0,0.0,0.0,0.0,0.0,0.0,0.0,0.0,0.0,0.0,0.0,0.0,0.0,0.0,0.0,0.0,0.0,0.0,0.0,0.0,0.0,0.0,-0.31800189614296,-9.70817375183105,-0.483782738447189,0.0,0.0,0.0,0.0,0.0,0.0,0.0,0.0,0.0
1702252241147022341,573,6473875999,,0.0,0.0,0.0,0.0,0.0,0.0,0.0,0.0,0.0,0.0,0.0,0.0,0.0,0.0,0.0,0.0,0.0,0.0,0.0,0.0,0.0,0.0,0.0,0.0,0.0,-0.333689749240875,-9.70616912841797,-0.472509384155273,0.0,0.0,0.0,0.0,0.0,0.0,0.0,0.0,0.0
1702252241148237317,574,6479804277,,0.0,0.0,0.0,0.0,0.0,0.0,0.0,0.0,0.0,0.0,0.0,0.0,0.0,0.0,0.0,0.0,0.0,0.0,0.0,0.0,0.0,0.0,0.0,0.0,0.0,-0.32527306675911,-9.71664142608643,-0.464493215084076,0.0,0.0,0.0,0.0,0.0,0.0,0.0,0.0,0.0
1702252241149850999,575,6492941379,,0.0,0.0,0.0,0.0,0.0,0.0,0.0,0.0,0.0,0.0,0.0,0.0,0.0,0.0,0.0,0.0,0.0,0.0,0.0,0.0,0.0,0.0,0.0,0.0,0.0,-0.332817584276199,-9.72000885009766,-0.466713964939117,0.0,0.0,0.0,0.0,0.0,0.0,0.0,0.0,0.0
1702252241151747418,576,6500365495,,0.0,0.0,0.0,0.0,0.0,0.0,0.0,0.0,0.0,0.0,0.0,0.0,0.0,0.0,0.0,0.0,0.0,0.0,0.0,0.0,0.0,0.0,0.0,0.0,0.0,-0.327072858810425,-9.71528720855713,-0.469463735818863,0.0,0.0,0.0,0.0,0.0,0.0,0.0,0.0,0.0
1702252241153119625,577,6509676456,,0.0,0.0,0.0,0.0,0.0,0.0,0.0,0.0,0.0,0.0,0.0,0.0,0.0,0.0,0.0,0.0,0.0,0.0,0.0,0.0,0.0,0.0,0.0,0.0,0.0,-0.33633229136467,-9.71292686462402,-0.470432817935944,0.0,0.0,0.0,0.0,0.0,0.0,0.0,0.0,0.0
1702252241154864948,578,6519873619,,0.0,0.0,0.0,0.0,0.0,0.0,0.0,0.0,0.0,0.0,0.0,0.0,0.0,0.0,0.0,0.0,0.0,0.0,0.0,0.0,0.0,0.0,0.0,0.0,0.0,-0.32104429602623,-9.70986557006836,-0.48386949300766,0.0,0.0,0.0,0.0,0.0,0.0,0.0,0.0,0.0
1702252241156408734,579,6528848409,,0.0,0.0,0.0,0.0,0.0,0.0,0.0,0.0,0.0,0.0,0.0,0.0,0.0,0.0,0.0,0.0,0.0,0.0,0.0,0.0,0.0,0.0,0.0,0.0,0.0,-0.326443493366241,-9.71325492858887,-0.472953498363495,0.0,0.0,0.0,0.0,0.0,0.0,0.0,0.0,0.0
1702252241158209911,580,6538480997,,0.0,0.0,0.0,0.0,0.0,0.0,0.0,0.0,0.0,0.0,0.0,0.0,0.0,0.0,0.0,0.0,0.0,0.0,0.0,0.0,0.0,0.0,0.0,0.0,0.0,-0.325678765773773,-9.7088680267334,-0.471600413322449,0.0,0.0,0.0,0.0,0.0,0.0,0.0,0.0,0.0
1702252241159512081,581,6548566818,,0.0,0.0,0.0,0.0,0.0,0.0,0.0,0.0,0.0,0.0,0.0,0.0,0.0,0.0,0.0,0.0,0.0,0.0,0.0,0.0,0.0,0.0,0.0,0.0,0.0,-0.332272827625275,-9.7146053314209,-0.477234184741974,0.0,0.0,0.0,0.0,0.0,0.0,0.0,0.0,0.0
1702252241161035270,582,6558966398,,0.0,0.0,0.0,0.0,0.0,0.0,0.0,0.0,0.0,0.0,0.0,0.0,0.0,0.0,0.0,0.0,0.0,0.0,0.0,0.0,0.0,0.0,0.0,0.0,0.0,-0.330723643302917,-9.70448684692383,-0.475831270217896,0.0,0.0,0.0,0.0,0.0,0.0,0.0,0.0,0.0
1702252241162563619,583,6568748235,,0.0,0.0,0.0,0.0,0.0,0.0,0.0,0.0,0.0,0.0,0.0,0.0,0.0,0.0,0.0,0.0,0.0,0.0,0.0,0.0,0.0,0.0,0.0,0.0,0.0,-0.327365517616272,-9.71967697143555,-0.471181243658066,0.0,0.0,0.0,0.0,0.0,0.0,0.0,0.0,0.0
1702252241166991458,584,6580300331,,0.0,0.0,0.0,0.0,0.0,0.0,0.0,0.0,0.0,0.0,0.0,0.0,0.0,0.0,0.0,0.0,0.0,0.0,0.0,0.0,0.0,0.0,0.0,0.0,0.0,-0.329966992139816,-9.71561813354492,-0.473205000162125,0.0,0.0,0.0,0.0,0.0,0.0,0.0,0.0,0.0
1702252241168614642,585,6589465856,,0.0,0.0,0.0,0.0,0.0,0.0,0.0,0.0,0.0,0.0,0.0,0.0,0.0,0.0,0.0,0.0,0.0,0.0,0.0,0.0,0.0,0.0,0.0,0.0,0.0,-0.331488907337189,-9.71325969696045,-0.475166916847229,0.0,0.0,0.0,0.0,0.0,0.0,0.0,0.0,0.0
1702252241170690305,586,6600247621,,0.0,0.0,0.0,0.0,0.0,0.0,0.0,0.0,0.0,0.0,0.0,0.0,0.0,0.0,0.0,0.0,0.0,0.0,0.0,0.0,0.0,0.0,0.0,0.0,0.0,-0.3277368247509,-9.70717620849609,-0.47837695479393,0.0,0.0,0.0,0.0,0.0,0.0,0.0,0.0,0.0
1702252241172917118,587,6614211082,,0.0,0.0,0.0,0.0,0.0,0.0,0.0,0.0,0.0,0.0,0.0,0.0,0.0,0.0,0.0,0.0,0.0,0.0,0.0,0.0,0.0,0.0,0.0,0.0,0.0,-0.331375986337662,-9.71325302124023,-0.478920578956604,0.0,0.0,0.0,0.0,0.0,0.0,0.0,0.0,0.0
1702252241175637876,588,6619382619,,0.0,0.0,0.0,0.0,0.0,0.0,0.0,0.0,0.0,0.0,0.0,0.0,0.0,0.0,0.0,0.0,0.0,0.0,0.0,0.0,0.0,0.0,0.0,0.0,0.0,-0.330455660820007,-9.70887088775635,-0.479186505079269,0.0,0.0,0.0,0.0,0.0,0.0,0.0,0.0,0.0
1702252241177660036,589,6631927490,,0.0,0.0,0.0,0.0,0.0,0.0,0.0,0.0,0.0,0.0,0.0,0.0,0.0,0.0,0.0,0.0,0.0,0.0,0.0,0.0,0.0,0.0,0.0,0.0,0.0,-0.323349863290787,-9.70886516571045,-0.475656718015671,0.0,0.0,0.0,0.0,0.0,0.0,0.0,0.0,0.0
1702252241179511312,590,6639643669,,0.0,0.0,0.0,0.0,0.0,0.0,0.0,0.0,0.0,0.0,0.0,0.0,0.0,0.0,0.0,0.0,0.0,0.0,0.0,0.0,0.0,0.0,0.0,0.0,0.0,-0.336654722690582,-9.70920562744141,-0.471295088529587,0.0,0.0,0.0,0.0,0.0,0.0,0.0,0.0,0.0
1702252241181422960,591,6649567842,,0.0,0.0,0.0,0.0,0.0,0.0,0.0,0.0,0.0,0.0,0.0,0.0,0.0,0.0,0.0,0.0,0.0,0.0,0.0,0.0,0.0,0.0,0.0,0.0,0.0,-0.332018435001373,-9.71124172210694,-0.466839164495468,0.0,0.0,0.0,0.0,0.0,0.0,0.0,0.0,0.0
1702252241183081095,592,6659931182,,0.0,0.0,0.0,0.0,0.0,0.0,0.0,0.0,0.0,0.0,0.0,0.0,0.0,0.0,0.0,0.0,0.0,0.0,0.0,0.0,0.0,0.0,0.0,0.0,0.0,-0.327361971139908,-9.70920658111572,-0.474254459142685,0.0,0.0,0.0,0.0,0.0,0.0,0.0,0.0,0.0
1702252241184621528,593,6674353599,,0.0,0.0,0.0,0.0,0.0,0.0,0.0,0.0,0.0,0.0,0.0,0.0,0.0,0.0,0.0,0.0,0.0,0.0,0.0,0.0,0.0,0.0,0.0,0.0,0.0,-0.323451966047287,-9.71360778808594,-0.464194655418396,0.0,0.0,0.0,0.0,0.0,0.0,0.0,0.0,0.0
1702252241186416193,594,6680138349,,0.0,0.0,0.0,0.0,0.0,0.0,0.0,0.0,0.0,0.0,0.0,0.0,0.0,0.0,0.0,0.0,0.0,0.0,0.0,0.0,0.0,0.0,0.0,0.0,0.0,-0.342372626066208,-9.71427536010742,-0.472465336322784,0.0,0.0,0.0,0.0,0.0,0.0,0.0,0.0,0.0
1702252241187873527,595,6689266204,,0.0,0.0,0.0,0.0,0.0,0.0,0.0,0.0,0.0,0.0,0.0,0.0,0.0,0.0,0.0,0.0,0.0,0.0,0.0,0.0,0.0,0.0,0.0,0.0,0.0,-0.327642410993576,-9.7044792175293,-0.478312373161316,0.0,0.0,0.0,0.0,0.0,0.0,0.0,0.0,0.0
1702252241189393073,596,6698627471,,0.0,0.0,0.0,0.0,0.0,0.0,0.0,0.0,0.0,0.0,0.0,0.0,0.0,0.0,0.0,0.0,0.0,0.0,0.0,0.0,0.0,0.0,0.0,0.0,0.0,-0.329857498407364,-9.71459865570069,-0.478316992521286,0.0,0.0,0.0,0.0,0.0,0.0,0.0,0.0,0.0
1702252241190934898,597,6715397119,,0.0,0.0,0.0,0.0,0.0,0.0,0.0,0.0,0.0,0.0,0.0,0.0,0.0,0.0,0.0,0.0,0.0,0.0,0.0,0.0,0.0,0.0,0.0,0.0,0.0,-0.328668028116226,-9.71020793914795,-0.477949440479279,0.0,0.0,0.0,0.0,0.0,0.0,0.0,0.0,0.0
1702252241192578964,598,6718511819,,0.0,0.0,0.0,0.0,0.0,0.0,0.0,0.0,0.0,0.0,0.0,0.0,0.0,0.0,0.0,0.0,0.0,0.0,0.0,0.0,0.0,0.0,0.0,0.0,0.0,-0.323032855987549,-9.71933364868164,-0.47023132443428,0.0,0.0,0.0,0.0,0.0,0.0,0.0,0.0,0.0
1702252241194166848,599,6729494333,,0.0,0.0,0.0,0.0,0.0,0.0,0.0,0.0,0.0,0.0,0.0,0.0,0.0,0.0,0.0,0.0,0.0,0.0,0.0,0.0,0.0,0.0,0.0,0.0,0.0,-0.322402536869049,-9.71022415161133,-0.471105188131332,0.0,0.0,0.0,0.0,0.0,0.0,0.0,0.0,0.0
1702252241195814872,600,6739867448,,0.0,0.0,0.0,0.0,0.0,0.0,0.0,0.0,0.0,0.0,0.0,0.0,0.0,0.0,0.0,0.0,0.0,0.0,0.0,0.0,0.0,0.0,0.0,0.0,0.0,-0.332832843065262,-9.7115650177002,-0.47889044880867,0.0,0.0,0.0,0.0,0.0,0.0,0.0,0.0,0.0
1702252241197541482,601,6749143123,,0.0,0.0,0.0,0.0,0.0,0.0,0.0,0.0,0.0,0.0,0.0,0.0,0.0,0.0,0.0,0.0,0.0,0.0,0.0,0.0,0.0,0.0,0.0,0.0,0.0,-0.330045282840729,-9.70987987518311,-0.475345492362976,0.0,0.0,0.0,0.0,0.0,0.0,0.0,0.0,0.0
1702252241199082583,602,6759748697,,0.0,0.0,0.0,0.0,0.0,0.0,0.0,0.0,0.0,0.0,0.0,0.0,0.0,0.0,0.0,0.0,0.0,0.0,0.0,0.0,0.0,0.0,0.0,0.0,0.0,-0.324154406785965,-9.71696186065674,-0.479973584413528,0.0,0.0,0.0,0.0,0.0,0.0,0.0,0.0,0.0
1702252241200683513,603,6768455028,,0.0,0.0,0.0,0.0,0.0,0.0,0.0,0.0,0.0,0.0,0.0,0.0,0.0,0.0,0.0,0.0,0.0,0.0,0.0,0.0,0.0,0.0,0.0,0.0,0.0,-0.330506533384323,-9.71999931335449,-0.472389250993729,0.0,0.0,0.0,0.0,0.0,0.0,0.0,0.0,0.0
1702252241202962704,604,6779117822,,0.0,0.0,0.0,0.0,0.0,0.0,0.0,0.0,0.0,0.0,0.0,0.0,0.0,0.0,0.0,0.0,0.0,0.0,0.0,0.0,0.0,0.0,0.0,0.0,0.0,-0.323265641927719,-9.71291065216065,-0.477139085531235,0.0,0.0,0.0,0.0,0.0,0.0,0.0,0.0,0.0
1702252241204896942,605,6789641618,,0.0,0.0,0.0,0.0,0.0,0.0,0.0,0.0,0.0,0.0,0.0,0.0,0.0,0.0,0.0,0.0,0.0,0.0,0.0,0.0,0.0,0.0,0.0,0.0,0.0,-0.328318953514099,-9.71730613708496,-0.471911907196045,0.0,0.0,0.0,0.0,0.0,0.0,0.0,0.0,0.0
1702252241207588810,606,6801486015,,0.0,0.0,0.0,0.0,0.0,0.0,0.0,0.0,0.0,0.0,0.0,0.0,0.0,0.0,0.0,0.0,0.0,0.0,0.0,0.0,0.0,0.0,0.0,0.0,0.0,-0.333421140909195,-9.71020889282227,-0.475939273834229,0.0,0.0,0.0,0.0,0.0,0.0,0.0,0.0,0.0
1702252241209415122,607,6809197664,,0.0,0.0,0.0,0.0,0.0,0.0,0.0,0.0,0.0,0.0,0.0,0.0,0.0,0.0,0.0,0.0,0.0,0.0,0.0,0.0,0.0,0.0,0.0,0.0,0.0,-0.33570984005928,-9.71595001220703,-0.477198362350464,0.0,0.0,0.0,0.0,0.0,0.0,0.0,0.0,0.0
1702252241211822930,608,6819779157,,0.0,0.0,0.0,0.0,0.0,0.0,0.0,0.0,0.0,0.0,0.0,0.0,0.0,0.0,0.0,0.0,0.0,0.0,0.0,0.0,0.0,0.0,0.0,0.0,0.0,-0.321163177490234,-9.70515441894531,-0.480620473623276,0.0,0.0,0.0,0.0,0.0,0.0,0.0,0.0,0.0
1702252241213610162,609,6828866004,,0.0,0.0,0.0,0.0,0.0,0.0,0.0,0.0,0.0,0.0,0.0,0.0,0.0,0.0,0.0,0.0,0.0,0.0,0.0,0.0,0.0,0.0,0.0,0.0,0.0,-0.330720752477646,-9.71258354187012,-0.480173051357269,0.0,0.0,0.0,0.0,0.0,0.0,0.0,0.0,0.0
1702252241215106702,610,6839246034,,0.0,0.0,0.0,0.0,0.0,0.0,0.0,0.0,0.0,0.0,0.0,0.0,0.0,0.0,0.0,0.0,0.0,0.0,0.0,0.0,0.0,0.0,0.0,0.0,0.0,-0.326712071895599,-9.70988750457764,-0.473739773035049,0.0,0.0,0.0,0.0,0.0,0.0,0.0,0.0,0.0
1702252241216744861,611,6849213600,,0.0,0.0,0.0,0.0,0.0,0.0,0.0,0.0,0.0,0.0,0.0,0.0,0.0,0.0,0.0,0.0,0.0,0.0,0.0,0.0,0.0,0.0,0.0,0.0,0.0,-0.322560101747513,-9.71865844726562,-0.469590723514557,0.0,0.0,0.0,0.0,0.0,0.0,0.0,0.0,0.0
1702252241218546914,612,6859887123,,0.0,0.0,0.0,0.0,0.0,0.0,0.0,0.0,0.0,0.0,0.0,0.0,0.0,0.0,0.0,0.0,0.0,0.0,0.0,0.0,0.0,0.0,0.0,0.0,0.0,-0.322943806648254,-9.71090221405029,-0.472414165735245,0.0,0.0,0.0,0.0,0.0,0.0,0.0,0.0,0.0
1702252241220271467,613,6871172666,,0.0,0.0,0.0,0.0,0.0,0.0,0.0,0.0,0.0,0.0,0.0,0.0,0.0,0.0,0.0,0.0,0.0,0.0,0.0,0.0,0.0,0.0,0.0,0.0,0.0,-0.32999250292778,-9.70516014099121,-0.474893629550934,0.0,0.0,0.0,0.0,0.0,0.0,0.0,0.0,0.0
1702252241221836387,614,6879794597,,0.0,0.0,0.0,0.0,0.0,0.0,0.0,0.0,0.0,0.0,0.0,0.0,0.0,0.0,0.0,0.0,0.0,0.0,0.0,0.0,0.0,0.0,0.0,0.0,0.0,-0.327943861484528,-9.72102451324463,-0.470279812812805,0.0,0.0,0.0,0.0,0.0,0.0,0.0,0.0,0.0
1702252241223590682,615,6889512538,,0.0,0.0,0.0,0.0,0.0,0.0,0.0,0.0,0.0,0.0,0.0,0.0,0.0,0.0,0.0,0.0,0.0,0.0,0.0,0.0,0.0,0.0,0.0,0.0,0.0,-0.323210179805756,-9.7095537185669,-0.471809446811676,0.0,0.0,0.0,0.0,0.0,0.0,0.0,0.0,0.0
1702252241225191942,616,6898897886,,0.0,0.0,0.0,0.0,0.0,0.0,0.0,0.0,0.0,0.0,0.0,0.0,0.0,0.0,0.0,0.0,0.0,0.0,0.0,0.0,0.0,0.0,0.0,0.0,0.0,-0.330276042222977,-9.70954036712647,-0.473985075950623,0.0,0.0,0.0,0.0,0.0,0.0,0.0,0.0,0.0
1702252241226784183,617,6908903598,,0.0,0.0,0.0,0.0,0.0,0.0,0.0,0.0,0.0,0.0,0.0,0.0,0.0,0.0,0.0,0.0,0.0,0.0,0.0,0.0,0.0,0.0,0.0,0.0,0.0,-0.333043128252029,-9.7142915725708,-0.465347290039062,0.0,0.0,0.0,0.0,0.0,0.0,0.0,0.0,0.0
1702252241228390024,618,6919144630,,0.0,0.0,0.0,0.0,0.0,0.0,0.0,0.0,0.0,0.0,0.0,0.0,0.0,0.0,0.0,0.0,0.0,0.0,0.0,0.0,0.0,0.0,0.0,0.0,0.0,-0.32977232336998,-9.70852565765381,-0.47209620475769,0.0,0.0,0.0,0.0,0.0,0.0,0.0,0.0,0.0
1702252241230246475,619,6928688526,,0.0,0.0,0.0,0.0,0.0,0.0,0.0,0.0,0.0,0.0,0.0,0.0,0.0,0.0,0.0,0.0,0.0,0.0,0.0,0.0,0.0,0.0,0.0,0.0,0.0,-0.331524342298508,-9.71697998046875,-0.469368189573288,0.0,0.0,0.0,0.0,0.0,0.0,0.0,0.0,0.0
1702252241231922000,620,6938769102,,0.0,0.0,0.0,0.0,0.0,0.0,0.0,0.0,0.0,0.0,0.0,0.0,0.0,0.0,0.0,0.0,0.0,0.0,0.0,0.0,0.0,0.0,0.0,0.0,0.0,-0.324191302061081,-9.70785045623779,-0.472952902317047,0.0,0.0,0.0,0.0,0.0,0.0,0.0,0.0,0.0
1702252241233876882,621,6948992252,,0.0,0.0,0.0,0.0,0.0,0.0,0.0,0.0,0.0,0.0,0.0,0.0,0.0,0.0,0.0,0.0,0.0,0.0,0.0,0.0,0.0,0.0,0.0,0.0,0.0,-0.329660713672638,-9.7172794342041,-0.485210627317429,0.0,0.0,0.0,0.0,0.0,0.0,0.0,0.0,0.0
1702252241235949461,622,6959418296,,0.0,0.0,0.0,0.0,0.0,0.0,0.0,0.0,0.0,0.0,0.0,0.0,0.0,0.0,0.0,0.0,0.0,0.0,0.0,0.0,0.0,0.0,0.0,0.0,0.0,-0.325768262147903,-9.71459674835205,-0.479463249444962,0.0,0.0,0.0,0.0,0.0,0.0,0.0,0.0,0.0
1702252241238013033,623,6969437122,,0.0,0.0,0.0,0.0,0.0,0.0,0.0,0.0,0.0,0.0,0.0,0.0,0.0,0.0,0.0,0.0,0.0,0.0,0.0,0.0,0.0,0.0,0.0,0.0,0.0,-0.324067324399948,-9.70953369140625,-0.476116299629211,0.0,0.0,0.0,0.0,0.0,0.0,0.0,0.0,0.0
1702252241239867289,624,6980867624,,0.0,0.0,0.0,0.0,0.0,0.0,0.0,0.0,0.0,0.0,0.0,0.0,0.0,0.0,0.0,0.0,0.0,0.0,0.0,0.0,0.0,0.0,0.0,0.0,0.0,-0.329187273979187,-9.71224117279053,-0.468305647373199,0.0,0.0,0.0,0.0,0.0,0.0,0.0,0.0,0.0
1702252241241413847,625,6989771842,,0.0,0.0,0.0,0.0,0.0,0.0,0.0,0.0,0.0,0.0,0.0,0.0,0.0,0.0,0.0,0.0,0.0,0.0,0.0,0.0,0.0,0.0,0.0,0.0,0.0,-0.326915234327316,-9.70549392700195,-0.472876191139221,0.0,0.0,0.0,0.0,0.0,0.0,0.0,0.0,0.0
1702252241243508274,626,6999242544,,0.0,0.0,0.0,0.0,0.0,0.0,0.0,0.0,0.0,0.0,0.0,0.0,0.0,0.0,0.0,0.0,0.0,0.0,0.0,0.0,0.0,0.0,0.0,0.0,0.0,-0.328934758901596,-9.71358013153076,-0.481112569570541,0.0,0.0,0.0,0.0,0.0,0.0,0.0,0.0,0.0
1702252241245441382,627,7009286880,,0.0,0.0,0.0,0.0,0.0,0.0,0.0,0.0,0.0,0.0,0.0,0.0,0.0,0.0,0.0,0.0,0.0,0.0,0.0,0.0,0.0,0.0,0.0,0.0,0.0,-0.327159702777863,-9.71292400360108,-0.469497114419937,0.0,0.0,0.0,0.0,0.0,0.0,0.0,0.0,0.0
1702252241247077680,628,7021254301,,0.0,0.0,0.0,0.0,0.0,0.0,0.0,0.0,0.0,0.0,0.0,0.0,0.0,0.0,0.0,0.0,0.0,0.0,0.0,0.0,0.0,0.0,0.0,0.0,0.0,-0.338719606399536,-9.71461200714112,-0.469092756509781,0.0,0.0,0.0,0.0,0.0,0.0,0.0,0.0,0.0
1702252241248590996,629,7029487848,,0.0,0.0,0.0,0.0,0.0,0.0,0.0,0.0,0.0,0.0,0.0,0.0,0.0,0.0,0.0,0.0,0.0,0.0,0.0,0.0,0.0,0.0,0.0,0.0,0.0,-0.324109882116318,-9.72033405303955,-0.478429764509201,0.0,0.0,0.0,0.0,0.0,0.0,0.0,0.0,0.0
1702252241250352076,630,7039137840,,0.0,0.0,0.0,0.0,0.0,0.0,0.0,0.0,0.0,0.0,0.0,0.0,0.0,0.0,0.0,0.0,0.0,0.0,0.0,0.0,0.0,0.0,0.0,0.0,0.0,-0.330551117658615,-9.71830654144287,-0.47976291179657,0.0,0.0,0.0,0.0,0.0,0.0,0.0,0.0,0.0
1702252241252049680,631,7049900293,,0.0,0.0,0.0,0.0,0.0,0.0,0.0,0.0,0.0,0.0,0.0,0.0,0.0,0.0,0.0,0.0,0.0,0.0,0.0,0.0,0.0,0.0,0.0,0.0,0.0,-0.333816736936569,-9.71291923522949,-0.473556399345398,0.0,0.0,0.0,0.0,0.0,0.0,0.0,0.0,0.0
1702252241253727319,632,7062282800,,0.0,0.0,0.0,0.0,0.0,0.0,0.0,0.0,0.0,0.0,0.0,0.0,0.0,0.0,0.0,0.0,0.0,0.0,0.0,0.0,0.0,0.0,0.0,0.0,0.0,-0.324708372354508,-9.70954704284668,-0.472942054271698,0.0,0.0,0.0,0.0,0.0,0.0,0.0,0.0,0.0
1702252241255458886,633,7069072008,,0.0,0.0,0.0,0.0,0.0,0.0,0.0,0.0,0.0,0.0,0.0,0.0,0.0,0.0,0.0,0.0,0.0,0.0,0.0,0.0,0.0,0.0,0.0,0.0,0.0,-0.321288675069809,-9.71596240997315,-0.463263034820557,0.0,0.0,0.0,0.0,0.0,0.0,0.0,0.0,0.0
1702252241256984875,634,7079397916,,0.0,0.0,0.0,0.0,0.0,0.0,0.0,0.0,0.0,0.0,0.0,0.0,0.0,0.0,0.0,0.0,0.0,0.0,0.0,0.0,0.0,0.0,0.0,0.0,0.0,-0.337873905897141,-9.71594905853272,-0.477438420057297,0.0,0.0,0.0,0.0,0.0,0.0,0.0,0.0,0.0
1702252241258494046,635,7089119911,,0.0,0.0,0.0,0.0,0.0,0.0,0.0,0.0,0.0,0.0,0.0,0.0,0.0,0.0,0.0,0.0,0.0,0.0,0.0,0.0,0.0,0.0,0.0,0.0,0.0,-0.328587919473648,-9.71257781982422,-0.476557701826096,0.0,0.0,0.0,0.0,0.0,0.0,0.0,0.0,0.0
1702252241259841765,636,7098953008,,0.0,0.0,0.0,0.0,0.0,0.0,0.0,0.0,0.0,0.0,0.0,0.0,0.0,0.0,0.0,0.0,0.0,0.0,0.0,0.0,0.0,0.0,0.0,0.0,0.0,-0.316931456327438,-9.7078447341919,-0.480417639017105,0.0,0.0,0.0,0.0,0.0,0.0,0.0,0.0,0.0
1702252241262536279,637,7111007213,,0.0,0.0,0.0,0.0,0.0,0.0,0.0,0.0,0.0,0.0,0.0,0.0,0.0,0.0,0.0,0.0,0.0,0.0,0.0,0.0,0.0,0.0,0.0,0.0,0.0,-0.324136108160019,-9.71594905853272,-0.475024670362473,0.0,0.0,0.0,0.0,0.0,0.0,0.0,0.0,0.0
1702252241264751864,638,7123994112,,0.0,0.0,0.0,0.0,0.0,0.0,0.0,0.0,0.0,0.0,0.0,0.0,0.0,0.0,0.0,0.0,0.0,0.0,0.0,0.0,0.0,0.0,0.0,0.0,0.0,-0.327062457799912,-9.70211791992188,-0.470991939306259,0.0,0.0,0.0,0.0,0.0,0.0,0.0,0.0,0.0
1702252241266985053,639,7128732204,,0.0,0.0,0.0,0.0,0.0,0.0,0.0,0.0,0.0,0.0,0.0,0.0,0.0,0.0,0.0,0.0,0.0,0.0,0.0,0.0,0.0,0.0,0.0,0.0,0.0,-0.333581358194351,-9.70785903930664,-0.472856491804123,0.0,0.0,0.0,0.0,0.0,0.0,0.0,0.0,0.0
1702252241269105730,640,7138460397,,0.0,0.0,0.0,0.0,0.0,0.0,0.0,0.0,0.0,0.0,0.0,0.0,0.0,0.0,0.0,0.0,0.0,0.0,0.0,0.0,0.0,0.0,0.0,0.0,0.0,-0.337234944105148,-9.70784759521484,-0.481740206480026,0.0,0.0,0.0,0.0,0.0,0.0,0.0,0.0,0.0
1702252241271150482,641,7149886369,,0.0,0.0,0.0,0.0,0.0,0.0,0.0,0.0,0.0,0.0,0.0,0.0,0.0,0.0,0.0,0.0,0.0,0.0,0.0,0.0,0.0,0.0,0.0,0.0,0.0,-0.328714072704315,-9.71393394470215,-0.472569137811661,0.0,0.0,0.0,0.0,0.0,0.0,0.0,0.0,0.0
1702252241272911434,642,7158762216,,0.0,0.0,0.0,0.0,0.0,0.0,0.0,0.0,0.0,0.0,0.0,0.0,0.0,0.0,0.0,0.0,0.0,0.0,0.0,0.0,0.0,0.0,0.0,0.0,0.0,-0.32807183265686,-9.72202682495117,-0.475073039531708,0.0,0.0,0.0,0.0,0.0,0.0,0.0,0.0,0.0
1702252241274699415,643,7169257402,,0.0,0.0,0.0,0.0,0.0,0.0,0.0,0.0,0.0,0.0,0.0,0.0,0.0,0.0,0.0,0.0,0.0,0.0,0.0,0.0,0.0,0.0,0.0,0.0,0.0,-0.324613213539124,-9.69671154022217,-0.477748781442642,0.0,0.0,0.0,0.0,0.0,0.0,0.0,0.0,0.0
1702252241276781011,644,7179435491,,0.0,0.0,0.0,0.0,0.0,0.0,0.0,0.0,0.0,0.0,0.0,0.0,0.0,0.0,0.0,0.0,0.0,0.0,0.0,0.0,0.0,0.0,0.0,0.0,0.0,-0.336532771587372,-9.72676372528076,-0.472560852766037,0.0,0.0,0.0,0.0,0.0,0.0,0.0,0.0,0.0
1702252241279132235,645,7189729928,,0.0,0.0,0.0,0.0,0.0,0.0,0.0,0.0,0.0,0.0,0.0,0.0,0.0,0.0,0.0,0.0,0.0,0.0,0.0,0.0,0.0,0.0,0.0,0.0,0.0,-0.332407027482987,-9.70989608764648,-0.471049696207047,0.0,0.0,0.0,0.0,0.0,0.0,0.0,0.0,0.0
1702252241280755954,646,7199375391,,0.0,0.0,0.0,0.0,0.0,0.0,0.0,0.0,0.0,0.0,0.0,0.0,0.0,0.0,0.0,0.0,0.0,0.0,0.0,0.0,0.0,0.0,0.0,0.0,0.0,-0.325336873531342,-9.7061653137207,-0.476664870977402,0.0,0.0,0.0,0.0,0.0,0.0,0.0,0.0,0.0
1702252241282371657,647,7209160804,,0.0,0.0,0.0,0.0,0.0,0.0,0.0,0.0,0.0,0.0,0.0,0.0,0.0,0.0,0.0,0.0,0.0,0.0,0.0,0.0,0.0,0.0,0.0,0.0,0.0,-0.32841545343399,-9.72170639038086,-0.469380885362625,0.0,0.0,0.0,0.0,0.0,0.0,0.0,0.0,0.0
1702252241284349012,648,7219372749,,0.0,0.0,0.0,0.0,0.0,0.0,0.0,0.0,0.0,0.0,0.0,0.0,0.0,0.0,0.0,0.0,0.0,0.0,0.0,0.0,0.0,0.0,0.0,0.0,0.0,-0.331915378570557,-9.71426105499268,-0.476692795753479,0.0,0.0,0.0,0.0,0.0,0.0,0.0,0.0,0.0
1702252241286041850,649,7229025602,,0.0,0.0,0.0,0.0,0.0,0.0,0.0,0.0,0.0,0.0,0.0,0.0,0.0,0.0,0.0,0.0,0.0,0.0,0.0,0.0,0.0,0.0,0.0,0.0,0.0,-0.332923591136932,-9.71798324584961,-0.471888571977615,0.0,0.0,0.0,0.0,0.0,0.0,0.0,0.0,0.0
1702252241287633011,650,7238789796,,0.0,0.0,0.0,0.0,0.0,0.0,0.0,0.0,0.0,0.0,0.0,0.0,0.0,0.0,0.0,0.0,0.0,0.0,0.0,0.0,0.0,0.0,0.0,0.0,0.0,-0.330412864685059,-9.71056175231934,-0.469245076179504,0.0,0.0,0.0,0.0,0.0,0.0,0.0,0.0,0.0
1702252241289105765,651,7248607873,,0.0,0.0,0.0,0.0,0.0,0.0,0.0,0.0,0.0,0.0,0.0,0.0,0.0,0.0,0.0,0.0,0.0,0.0,0.0,0.0,0.0,0.0,0.0,0.0,0.0,-0.330489754676819,-9.72203350067139,-0.472600102424622,0.0,0.0,0.0,0.0,0.0,0.0,0.0,0.0,0.0
1702252241290540634,652,7259303569,,0.0,0.0,0.0,0.0,0.0,0.0,0.0,0.0,0.0,0.0,0.0,0.0,0.0,0.0,0.0,0.0,0.0,0.0,0.0,0.0,0.0,0.0,0.0,0.0,0.0,-0.328403413295746,-9.72676372528076,-0.470470309257507,0.0,0.0,0.0,0.0,0.0,0.0,0.0,0.0,0.0
1702252241291993373,653,7269231796,,0.0,0.0,0.0,0.0,0.0,0.0,0.0,0.0,0.0,0.0,0.0,0.0,0.0,0.0,0.0,0.0,0.0,0.0,0.0,0.0,0.0,0.0,0.0,0.0,0.0,-0.334250599145889,-9.71663475036621,-0.47154900431633,0.0,0.0,0.0,0.0,0.0,0.0,0.0,0.0,0.0
1702252241294055843,654,7278899192,,0.0,0.0,0.0,0.0,0.0,0.0,0.0,0.0,0.0,0.0,0.0,0.0,0.0,0.0,0.0,0.0,0.0,0.0,0.0,0.0,0.0,0.0,0.0,0.0,0.0,-0.319749802350998,-9.71864891052246,-0.474595755338669,0.0,0.0,0.0,0.0,0.0,0.0,0.0,0.0,0.0
1702252241295811354,655,7289341449,,0.0,0.0,0.0,0.0,0.0,0.0,0.0,0.0,0.0,0.0,0.0,0.0,0.0,0.0,0.0,0.0,0.0,0.0,0.0,0.0,0.0,0.0,0.0,0.0,0.0,-0.334526598453522,-9.71023273468018,-0.475798189640045,0.0,0.0,0.0,0.0,0.0,0.0,0.0,0.0,0.0
1702252241297771951,656,7299088716,,0.0,0.0,0.0,0.0,0.0,0.0,0.0,0.0,0.0,0.0,0.0,0.0,0.0,0.0,0.0,0.0,0.0,0.0,0.0,0.0,0.0,0.0,0.0,0.0,0.0,-0.332046777009964,-9.70548725128174,-0.484275251626968,0.0,0.0,0.0,0.0,0.0,0.0,0.0,0.0,0.0
1702252241299758377,657,7308508157,,0.0,0.0,0.0,0.0,0.0,0.0,0.0,0.0,0.0,0.0,0.0,0.0,0.0,0.0,0.0,0.0,0.0,0.0,0.0,0.0,0.0,0.0,0.0,0.0,0.0,-0.334217011928558,-9.70516586303711,-0.473403841257095,0.0,0.0,0.0,0.0,0.0,0.0,0.0,0.0,0.0
1702252241303938676,658,7320304393,,0.0,0.0,0.0,0.0,0.0,0.0,0.0,0.0,0.0,0.0,0.0,0.0,0.0,0.0,0.0,0.0,0.0,0.0,0.0,0.0,0.0,0.0,0.0,0.0,0.0,-0.344700932502747,-9.71358776092529,-0.474675506353378,0.0,0.0,0.0,0.0,0.0,0.0,0.0,0.0,0.0
1702252241305661272,659,7330569505,,0.0,0.0,0.0,0.0,0.0,0.0,0.0,0.0,0.0,0.0,0.0,0.0,0.0,0.0,0.0,0.0,0.0,0.0,0.0,0.0,0.0,0.0,0.0,0.0,0.0,-0.339211881160736,-9.71223068237305,-0.484413057565689,0.0,0.0,0.0,0.0,0.0,0.0,0.0,0.0,0.0
1702252241307808102,660,7341048002,,0.0,0.0,0.0,0.0,0.0,0.0,0.0,0.0,0.0,0.0,0.0,0.0,0.0,0.0,0.0,0.0,0.0,0.0,0.0,0.0,0.0,0.0,0.0,0.0,0.0,-0.33948478102684,-9.71292304992676,-0.47591769695282,0.0,0.0,0.0,0.0,0.0,0.0,0.0,0.0,0.0
1702252241309771106,661,7349190473,,0.0,0.0,0.0,0.0,0.0,0.0,0.0,0.0,0.0,0.0,0.0,0.0,0.0,0.0,0.0,0.0,0.0,0.0,0.0,0.0,0.0,0.0,0.0,0.0,0.0,-0.337790846824646,-9.70751762390137,-0.476664662361145,0.0,0.0,0.0,0.0,0.0,0.0,0.0,0.0,0.0
