Timestamp,IMU_Raw_x,IMU_Raw_y,IMU_Raw_z,IMU_Linear_Acc_X,IMU_Linear_Acc_Y,IMU_Linear_Acc_Z
1706236113439089097,0.12639939785003662,9.768971443176271,-0.998027265071869,0.0018758915830403566,9.111065446631983e-05,0.0019396137213334441
1706236113448789912,0.12655407190322876,9.750418663024904,-1.001741886138916,0.002387302927672863,-4.656791497836821e-05,0.0024459024425596
1706236113458988578,0.13252732157707214,9.768327713012695,-1.0090702772140505,0.0026799924671649933,-0.0002984009333886206,0.002867132890969515
1706236113469116967,0.12122578918933868,9.772022247314453,-1.0046643018722536,0.00312616559676826,-0.0007135046180337667,0.003452547127380967
1706236113480486689,0.12158083170652391,9.775736808776857,-1.0118504762649538,0.0039008655585348606,-0.0009887224296107888,0.004097522236406803
1706236113488655652,0.12060604244470598,9.768654823303224,-1.010063648223877,0.0047079771757125854,-0.0005195607081986964,0.004458688199520111
1706236113500806801,0.11922500282526018,9.761895179748537,-1.00468111038208,0.0050390418618917465,0.0009343093261122704,0.0042626033537089825
1706236113508376671,0.13457363843917847,9.755502700805664,-1.0182907581329346,0.004660812672227621,0.002804384334012866,0.003505297238007188
1706236113521748541,0.1227884292602539,9.775082588195803,-1.0085947513580322,0.003886840771883726,0.0040743849240243435,0.0023644035682082176
1706236113528626449,0.12722963094711304,9.770020484924318,-1.0202322006225586,0.0033329820726066828,0.004205544479191303,0.0009884688770398498
1706236113541162819,0.12973420321941379,9.758864402770998,-1.011185646057129,0.0033968042116612196,0.003536725416779518,-0.000530705030541867
1706236113548495912,0.12940698862075806,9.761567115783693,-1.0118550062179568,0.004106177482753992,0.002635688753798604,-0.0020519306417554617
1706236113558932115,0.12723059952259066,9.758875846862795,-1.0049177408218386,0.00528478529304266,0.0016616894863545895,-0.003273896872997284
1706236113568592152,0.12407810240983964,9.76289176940918,-0.9973628520965576,0.006610201206058264,0.0005147855263203382,-0.0037242863327264786
1706236113579461097,0.11888303607702257,9.770688056945803,-1.0133982896804812,0.007616572547703981,-0.0007384232012555003,-0.0029836345929652452
1706236113588634375,0.12838059663772583,9.774721145629883,-0.9982822537422181,0.007855038158595562,-0.0016651481855660677,-0.0010773640824481845
1706236113599334726,0.12071633338928223,9.763237953186037,-0.9962148666381836,0.007192970719188452,-0.0016756028635427356,0.001496438286267221
1706236113609337356,0.12476403266191484,9.761563301086428,-1.0091544389724734,0.005916498601436615,-0.0006058646249584854,0.0041915676556527615
1706236113619369615,0.1190539002418518,9.767635345458984,-1.0049693584442139,0.004473754204809666,0.0009905509650707245,0.006538329645991325
1706236113628779893,0.1285025328397751,9.764945983886719,-1.00836455821991,0.0032164272852241993,0.0023141265846788883,0.008022471331059933
1706236113639634171,0.12352486699819566,9.758212089538576,-1.0098776817321777,0.0023876456543803215,0.0028901067562401295,0.008277563378214836
1706236113649837078,0.1265363544225693,9.76763916015625,-1.0029622316360476,0.002152157947421074,0.002622178988531232,0.0073419795371592045
1706236113658996189,0.12610833346843722,9.764259338378906,-1.0040699243545534,0.0025229910388588905,0.0016993923345580697,0.005699336528778076
1706236113668787763,0.12733617424964905,9.766975402832031,-1.0090563297271729,0.003342472715303302,0.0005701116169802845,0.004072108305990696
1706236113679104171,0.13010440766811374,9.767646789550781,-1.0046701431274414,0.004391836933791637,-0.0002536668034736067,0.0030019215773791075
1706236113688772245,0.12563326954841614,9.760212898254396,-1.008836030960083,0.005490937735885382,-0.0004795353743247688,0.002606552094221115
1706236113708948393,0.1272721290588379,9.758528709411623,-1.0049664974212646,0.007271388545632362,0.00036171695683151484,0.003092055441811681
1706236113719253245,0.12270095944404602,9.782842636108398,-1.0099371671676638,0.007723677437752485,0.0008566542528569698,0.0035852266009896994
1706236113729004208,0.12031369656324388,9.755149841308594,-1.0104401111602783,0.007741870824247599,0.001328956801444292,0.003993115853518248
1706236113739062523,0.12571464478969577,9.768971443176271,-1.0017492771148682,0.007197660859674215,0.0018779132515192032,0.004079623147845268
1706236113748801523,0.12846805155277255,9.777076721191406,-0.9969595670700073,0.0061484514735639095,0.002429342595860362,0.0038603527937084436
1706236113759090411,0.1291948109865189,9.77638339996338,-0.9954100251197816,0.005000924691557884,0.003007109509781003,0.003796171862632036
1706236113768747578,0.1131756827235222,9.767622947692873,-1.0023547410964968,0.004241485148668289,0.0039026951417326927,0.004466615617275238
1706236113779097449,0.11505451798439026,9.774041175842287,-0.9988965392112733,0.0038929192814975977,0.0052314926870167255,0.006018165964633226
1706236113789180189,0.12361868470907213,9.780126571655273,-1.0026180744171143,0.003451856318861246,0.006739100906997919,0.008017350919544697
1706236113798850634,0.1281113773584366,9.765625,-1.0131503343582156,0.0025631014723330736,0.008133713155984879,0.009734231047332287
1706236113809078819,0.11923735588788988,9.76830577850342,-1.0005861520767214,0.0015032426454126835,0.00917412992566824,0.010469923727214336
1706236113819949041,0.12221476435661316,9.779455184936523,-0.9991315007209779,0.0007960966322571039,0.009587480686604977,0.009947534650564194
1706236113829044374,0.12497827410697937,9.773707389831545,-1.0043883323669434,0.0006602469948120415,0.009362300857901573,0.008588663302361965
1706236113839139319,0.12153442949056627,9.776412010192873,-1.0033538341522217,0.0009967426303774118,0.00891484972089529,0.007169103715568781
1706236113849029708,0.1338395029306412,9.769683837890625,-1.0076378583908083,0.0016487656394019723,0.008698108606040478,0.0061968667432665825
1706236113858996893,0.12133808434009552,9.765262603759766,-0.998969554901123,0.002549475757405162,0.008774986490607262,0.005737381987273693
1706236113869166152,0.13451668620109558,9.76528549194336,-1.0022914409637451,0.003680683672428131,0.008773470297455788,0.005677681881934404
1706236113879110837,0.1299726963043213,9.76594352722168,-1.0044518709182741,0.004992842208594084,0.008206087164580822,0.0059387837536633015
1706236113889224726,0.13346460461616516,9.771349906921388,-1.0058099031448366,0.00644093519076705,0.00690853176638484,0.006395397707819939
1706236113899086560,0.11788031458854675,9.765610694885256,-1.0025722980499268,0.007914834655821323,0.005205674562603235,0.00680088996887207
1706236113909271504,0.12291955202817918,9.772372245788576,-1.0073015689849854,0.009028852917253971,0.003666312899440527,0.006934307049959898
1706236113919977689,0.14320242404937744,9.769333839416506,-1.0095771551132204,0.009328784421086311,0.002754196058958769,0.00669963238760829
1706236113928875837,0.12487708777189256,9.77777099609375,-1.0077221393585205,0.008909754455089569,0.002695299219340086,0.006061008665710688
1706236113941945337,0.12167722731828691,9.76662826538086,-1.0063582658767702,0.00836165715008974,0.0034858407452702522,0.005056409630924463
1706236113949046226,0.11584535241127014,9.759512901306154,-1.0017436742782595,0.007935535162687302,0.0047906492836773396,0.0039168125949800014
1706236113958632560,0.11875238269567491,9.759881019592287,-1.0008299350738525,0.007249068934470415,0.00585198774933815,0.0030693477019667625
1706236113968471560,0.12678454816341403,9.768327713012695,-1.013430953025818,0.005884858779609203,0.005859895143657923,0.002884115092456341
1706236113979505152,0.1228814944624901,9.76222038269043,-0.9983420372009277,0.003986446652561426,0.00460383715108037,0.0033442822750657797
1706236113988888597,0.1432139724493027,9.770347595214844,-1.006172299385071,0.002283989917486906,0.002622786210849881,0.004111571237444878
1706236114000047022,0.12215748429298401,9.755476951599123,-1.0068249702453613,0.001679570646956563,0.0007177136722020805,0.0048720440827310085
1706236114009101597,0.12941890954971313,9.764283180236818,-1.003458380699158,0.002620964776724577,-0.0006247882847674191,0.005425904877483845
1706236114019338726,0.1329709440469742,9.763254165649414,-1.0050584077835085,0.0047317249700427055,-0.001389638870023191,0.005661611445248127
1706236114032318800,0.1282806098461151,9.759199142456055,-1.0064629316329958,0.007184231653809547,-0.0017657044809311628,0.005606191698461771
1706236114039757300,0.1327808648347855,9.764610290527344,-1.0077390670776367,0.009289874695241451,-0.0019295961828902364,0.005353334825485945
1706236114049545726,0.1319827437400818,9.765958786010742,-1.0104829072952273,0.010704702697694302,-0.0019866556394845247,0.004934083670377731
1706236114061902096,0.1235516592860222,9.7669677734375,-1.010768532752991,0.011376595124602318,-0.0018916158005595207,0.004297066479921341
1706236114068842337,0.12640872597694397,9.773713111877443,-1.004323959350586,0.01134815625846386,-0.0014608618803322315,0.003416246734559536
1706236114079032819,0.12526345252990723,9.771700859069826,-1.005927920341492,0.010635506361722946,-0.00048778147902339697,0.0024576459545642138
1706236114088953319,0.12368156015872955,9.769660949707031,-1.0115232467651367,0.009342610836029053,0.0011046676663681865,0.001741004642099142
1706236114100383171,0.1265818476676941,9.76259517669678,-1.005232572555542,0.007737025152891874,0.003066128119826317,0.001450429088436067
1706236114109132615,0.133486345410347,9.767977714538576,-1.0040993690490723,0.006213204935193062,0.004798764828592539,0.0015392869245260954
1706236114119089115,0.1388375163078308,9.762908935546875,-1.0018142461776736,0.00529472017660737,0.005688455421477556,0.001945299794897437
1706236114129420522,0.12491395324468614,9.771677970886232,-0.9989575743675233,0.005477651488035917,0.0055116815492510796,0.002714640460908413
1706236114139255152,0.1326960772275925,9.771687507629396,-1.007840871810913,0.006801188457757235,0.004586219321936369,0.003876888658851385
1706236114149033337,0.11979068070650102,9.769990921020508,-0.9961493015289307,0.008652320131659508,0.003590024309232831,0.005279396660625935
1706236114161341985,0.12418685108423234,9.762562751770021,-1.0054373741149902,0.010095544159412384,0.00309435511007905,0.006638368591666222
1706236114169348245,0.12332615256309509,9.765953063964844,-1.0060105323791504,0.010383522137999535,0.003148506162688136,0.007693489082157612
1706236114179042596,0.13472360372543335,9.77134895324707,-1.004814863204956,0.009384737350046635,0.003390296595171094,0.008218975737690926
1706236114189531911,0.122643880546093,9.761878967285156,-1.001148819923401,0.007686304859817028,0.003506865818053484,0.008094384334981441
1706236114199907245,0.11413776874542236,9.773017883300781,-1.0020058155059814,0.0060666813515126705,0.0034303374122828245,0.007486699614673853
1706236114208532541,0.12631887197494507,9.760193824768068,-1.0004626512527468,0.00481251860037446,0.003223571227863431,0.006808923091739416
1706236114218484226,0.135341078042984,9.776679039001467,-1.001854658126831,0.0038386769592761993,0.0029861305374652147,0.00645400071516633
1706236114228919022,0.12341673672199249,9.767559051513672,-1.0003296136856081,0.0032901051454246044,0.0028715943917632103,0.006590128876268864
1706236114238517300,0.12581178545951843,9.768583297729492,-1.0009362697601318,0.00346110831014812,0.003058303613215685,0.007144866976886988
1706236114249585448,0.125125914812088,9.769281387329102,-1.0000816583633425,0.00427423557266593,0.003569471649825573,0.007914146408438683
1706236114259725133,0.12648874521255493,9.766236305236818,-1.008322596549988,0.005285254679620266,0.004204309545457363,0.008645270951092243
1706236114268516337,0.12506850063800815,9.758472442626953,-1.0049885511398318,0.006070737261325121,0.004643862601369619,0.00903457310050726
1706236114279310041,0.12784764170646667,9.764210700988771,-1.0090324878692627,0.0064417654648423195,0.004528638906776905,0.008792457170784473
1706236114289184078,0.12484153360128404,9.76961898803711,-0.9997395873069764,0.006438254378736019,0.003668950404971838,0.007853256538510323
1706236114299420504,0.11766219884157182,9.762524604797365,-1.0058388710021973,0.006177324801683426,0.0023148865438997746,0.006519080605357885
1706236114309086263,0.1295384615659714,9.754419326782227,-1.0009238719940186,0.0056898160837590694,0.0009456590050831437,0.005315782502293587
1706236114319151041,0.12576045095920566,9.759148597717287,-1.0045896768569949,0.0050237588584423065,-0.0002574487298261374,0.004667076747864485
1706236114330047985,0.1218501478433609,9.765883445739748,-1.0067498683929443,0.004398037679493427,-0.0014285215875133872,0.004671495873481035
1706236114338522763,0.12437324225902557,9.777036666870117,-1.014516830444336,0.004013265483081341,-0.0024797404184937477,0.005044138059020042
1706236114350101448,0.12320896983146667,9.75913715362549,-0.9992197155952455,0.0038526104763150215,-0.002897097496315837,0.005272558890283108
1706236114359738522,0.12291309237480164,9.758803367614748,-1.0025932788848877,0.0037826276384294033,-0.002334575867280364,0.005072453990578651
1706236114369325596,0.12046653777360918,9.764191627502443,-1.0036710500717165,0.003678607987239957,-0.0011760113993659616,0.00467411195859313
1706236114379044319,0.11699271947145463,9.759491920471193,-1.0119397640228271,0.003413902362808585,-0.00019560314831323922,0.004463741090148687
1706236114389102096,0.11875985562801361,9.773304939270021,-0.9937821626663208,0.0028430188540369272,0.00015717903443146497,0.004538712557405233
1706236114399457689,0.1094527393579483,9.756437301635742,-1.0110660791397097,0.0018462440930306911,-7.548550456704106e-06,0.004811122547835112
1706236114409180189,0.132689043879509,9.766229629516602,-1.0006043910980225,0.00045051632332615554,-0.00034041950129903853,0.0052136522717773914
1706236114419165374,0.1300654411315918,9.764538764953615,-1.002017140388489,-0.000918963982257992,-0.0006231858278624713,0.005660856608301401
1706236114429628004,0.12209848314523698,9.772968292236328,-1.0013085603713991,-0.0014661015011370182,-0.0007301567820832133,0.006095361430197954
1706236114439029189,0.12128793448209764,9.758440971374513,-0.998353660106659,-0.0007089358987286687,-0.0004982787068001926,0.006569127552211285
1706236114449058837,0.12021233886480333,9.775355339050295,-1.008216142654419,0.0009784637950360775,0.0001227137545356527,0.007135667372494936
1706236114459679411,0.12417228519916534,9.77027988433838,-1.0039684772491455,0.002712759654968977,0.0010336851701140404,0.007678826339542866
1706236114468466837,0.11738785356283189,9.761477470397951,-0.9948925971984863,0.0037771263159811497,0.0021293957252055407,0.00797384325414896
1706236114479241541,0.1215745210647583,9.763537406921388,-1.009618163108826,0.003903016448020935,0.003178686834871769,0.007975749671459198
1706236114489203115,0.12491092830896379,9.746331214904787,-1.0062026977539062,0.003223032457754016,0.003659548470750451,0.007793707307428122
1706236114499749985,0.13390208780765536,9.769937515258789,-1.008542776107788,0.002235202817246318,0.0030029481276869774,0.007391316816210747
1706236114509460226,0.12403619289398193,9.768922805786133,-1.0016167163848877,0.0016718809492886066,0.0011856320779770613,0.006652562879025936
1706236114519611059,0.12598444521427157,9.767595291137695,-1.0096426010131836,0.002046016976237297,-0.0009553961572237313,0.005662919022142887
1706236114528985911,0.13680177927017212,9.763197898864748,-1.0111732482910156,0.0033154492266476154,-0.002309612464159727,0.00464667659252882
1706236114539418318,0.130993589758873,9.757796287536623,-1.0084201097488406,0.005138731095939875,-0.0024127981159836054,0.0036987545900046825
1706236114554248892,0.14014700055122375,9.758817672729492,-0.9961260557174683,0.007256909739226103,-0.0016983068780973554,0.002845566486939788
1706236114559096744,0.12893614172935486,9.75611972808838,-1.009314775466919,0.009498200379312038,-0.001034524291753769,0.0023161021526902914
1706236114569230096,0.132338359951973,9.760150909423828,-1.0074683427810671,0.01159774698317051,-0.001098582986742258,0.0023824868258088827
1706236114578915337,0.1303006857633591,9.760858535766602,-1.0122714042663574,0.013158583082258701,-0.002016711048781872,0.00292397802695632
1706236114588626430,0.12888054549694064,9.757121086120607,-1.0049623250961306,0.013845711946487427,-0.003412633202970028,0.003455721540376544
1706236114607855726,0.12016170471906663,9.757797241210938,-1.0069103240966797,0.013539583422243595,-0.004771293606609106,0.0035965382121503353
1706236114609619411,0.1271633952856064,9.762543678283693,-1.0136696100234988,0.01227845810353756,-0.005755958613008261,0.0033159994054585695
1706236114619568707,0.12894940376281738,9.76522445678711,-1.004312872886658,0.010284926742315292,-0.0061900136061012745,0.0027609493117779493
1706236114628507837,0.12665556371212008,9.766226768493654,-1.0090795755386355,0.008078806102275848,-0.005922398529946804,0.0021033710800111294
1706236114643648929,0.13323588669300082,9.769619941711428,-1.0093618631362917,0.006323912646621466,-0.004859624896198511,0.0015450089704245329
1706236114652029115,0.12753647565841675,9.766232490539553,-1.0039740800857546,0.0055057392455637455,-0.0030811228789389133,0.0012412855867296457
1706236114661410189,0.12098570913076402,9.766904830932617,-0.9997839331626893,0.005687938071787357,-0.0008942389977164567,0.0012933015823364258
1706236114668539189,0.12293737381696702,9.771968841552734,-1.005960822105408,0.0064094034023582935,0.001252568792551756,0.0018322685500606894
1706236114679435041,0.12281394749879838,9.767914772033693,-1.009101390838623,0.00693246116861701,0.0030042428988963366,0.002862840425223112
1706236114689114485,0.12973609566688538,9.769264221191406,-0.9972229599952699,0.006781456060707569,0.004231838043779135,0.00409415690228343
1706236114699233837,0.134545236825943,9.766244888305664,-1.007315278053284,0.006099328864365816,0.004936764016747475,0.0051763723604381084
1706236114708902041,0.13004235923290255,9.764211654663086,-1.0049344301223757,0.005527388770133257,0.005128802265971899,0.0059475223533809185
1706236114719136559,0.12357422709465027,9.766563415527344,-1.0012484788894656,0.005647426005452871,0.004810316953808069,0.006361721083521843
1706236114729701374,0.11915406584739685,9.770970344543459,-1.0071493387222292,0.006413912400603294,0.004080756567418575,0.006443518213927746
1706236114738567466,0.13620054721832275,9.76185417175293,-1.0104252099990847,0.007222980726510286,0.0032148079480975866,0.006263681221753359
1706236114748940744,0.1289864480495453,9.768944740295412,-0.9994033575057983,0.007619866635650396,0.0025006711948662996,0.005842386279255152
1706236114760162411,0.1290954798460007,9.774330139160156,-1.0115232467651367,0.007712252903729677,0.0020978671964257956,0.005232229828834534
1706236114769248966,0.126326322555542,9.766907691955568,-1.003554701805115,0.00780999893322587,0.0021380423568189144,0.004588249139487743
1706236114778922503,0.12547296285629272,9.772634506225586,-1.0118874311447146,0.00798343401402235,0.0027075374964624643,0.004023234359920025
1706236114789353985,0.135430321097374,9.777704238891602,-1.005443811416626,0.008109991438686848,0.0037312419153749943,0.0035302548203617334
1706236114799064633,0.12029814720153809,9.77163314819336,-1.0035179853439333,0.008135856129229069,0.00507402466610074,0.003092454979196191
1706236114808581911,0.12103687226772308,9.755068778991701,-0.9993571639060975,0.008038843981921673,0.006504410412162542,0.0028419967275112867
1706236114819627133,0.1387818902730942,9.767603874206545,-1.0144451856613161,0.007699979469180107,0.007450048346072435,0.0029949324671179056
1706236114828957096,0.13020199537277222,9.769268035888672,-1.0026452541351318,0.007203534245491028,0.007282971404492855,0.003521972568705678
1706236114839114503,0.12478936463594438,9.77501964569092,-1.0030884742736816,0.0069673871621489525,0.006029618438333273,0.004113208036869764
1706236114849117892,0.1295038312673569,9.767915725708008,-1.0012859106063845,0.007233328185975552,0.004462576005607843,0.004573430400341749
1706236114859382855,0.1249394416809082,9.778063774108888,-1.0068031549453738,0.007782153319567442,0.0034672340843826532,0.004973269533365965
1706236114869506022,0.11891403794288635,9.770959854125977,-1.0024523735046387,0.008184659294784069,0.003519262420013547,0.005395617336034775
1706236114879127226,0.12817886471748352,9.772302627563477,-1.001631736755371,0.008054321631789207,0.00458169961348176,0.0058066085912287235
1706236114889291152,0.1315823793411255,9.760848045349123,-1.0072602033615115,0.007298541720956564,0.006149223539978266,0.006155459210276604
1706236114899882800,0.1322555094957352,9.771980285644531,-1.0076520442962646,0.006329796276986599,0.007429805118590593,0.006372140720486641
1706236114908537355,0.1263020634651184,9.764565467834474,-1.0048086643218994,0.005802826024591923,0.00778682017698884,0.00631271256133914
1706236114919461818,0.1277127116918564,9.767590522766115,-0.9984292984008789,0.006044937763363123,0.00710283312946558,0.0059310561046004295
1706236114929872392,0.13392414152622226,9.758119583129883,-0.9993071556091309,0.006872210185974836,0.005670466925948858,0.005493850912898779
1706236114938567040,0.12560829520225525,9.770973205566406,-1.0082194805145264,0.00790688581764698,0.003873201319947839,0.005415457300841808
1706236114950153040,0.11141902953386308,9.76150894165039,-0.9999884366989136,0.008747723884880543,0.0020916005596518517,0.005829143803566694
1706236114959685540,0.12532891333103183,9.768943786621094,-1.0092976093292236,0.008852249942719936,0.0007035480812191963,0.006470976397395134
1706236114969503800,0.1154431402683258,9.770963668823242,-1.010291337966919,0.007769960444420576,-8.359496860066429e-06,0.006911385804414749
1706236114979216670,0.11554045975208282,9.77941417694092,-1.009848475456238,0.005554917734116316,0.00014881210518069565,0.006750076077878475
1706236114988636966,0.12884819507598877,9.762508392333984,-1.0044113397598269,0.002743329154327512,0.0012762779369950294,0.005814229603856802
1706236114999280133,0.12727253139019015,9.764199256896974,-1.0053735971450808,0.00017413457680959255,0.0030947732739150524,0.0043632290326058865
1706236115009226411,0.12685276567935946,9.759134292602539,-1.0047751665115359,-0.0012339918175712228,0.004785594996064901,0.0029834038577973843
1706236115018625892,0.1292177140712738,9.763874053955078,-1.0134620666503906,-0.0009607368847355247,0.005432290490716696,0.0021635552402585745
1706236115029044577,0.12526440620422363,9.768601417541506,-1.012428164482117,0.0008105351589620113,0.004677473101764917,0.001921188086271286
1706236115043808744,0.1047622412443161,9.774333000183107,-1.0040676593780518,0.0032491469755768776,0.0030014703515917063,0.0018763901898637414
1706236115049521633,0.12725871801376343,9.758487701416016,-1.0102417469024658,0.00512288510799408,0.0013800514861941338,0.0017216905253008008
1706236115060507337,0.12688660621643066,9.765221595764162,-1.0076781511306765,0.0055107008665800095,0.0005057840025983751,0.0014700668398290873
1706236115068708244,0.12296078354120256,9.767230987548828,-0.9982201457023622,0.00454420130699873,0.0003743480483535677,0.0013126896228641272
1706236115079469948,0.12439090013504028,9.76351833343506,-1.0033798217773438,0.0031314706429839134,0.0006276110070757568,0.0015202935319393873
1706236115095964726,0.11439979821443559,9.75946044921875,-0.9954939484596254,0.002045481698587537,0.0009340692195110023,0.0023719239979982376
1706236115104275448,0.12986771762371066,9.766571044921875,-1.0026214122772217,0.001494920114055276,0.00101917062420398,0.00395397050306201
1706236115108599337,0.1217336356639862,9.765913009643555,-1.007822394371033,0.0013731707585975528,0.0007580457604490221,0.005992122460156679
1706236115119646077,0.11873015761375427,9.767910957336428,-0.9998846054077148,0.0015684155514463782,0.00032468451536260545,0.00787889864295721
1706236115131440596,0.12215613573789598,9.76960563659668,-0.9987918734550477,0.0019090198911726475,7.972140156198293e-05,0.009050736203789711
1706236115139629670,0.11928452551364899,9.762509346008303,-1.0046467781066895,0.002122027100995183,0.00028863156330771744,0.009402425028383732
1706236115150286170,0.12593576312065125,9.759820938110352,-0.999457597732544,0.002045968547463417,0.0008768922998569906,0.009203916415572166
1706236115160897411,0.13827648758888245,9.760841369628906,-1.0063362121582031,0.0018518773140385747,0.0014001927338540554,0.008758952841162682
1706236115172413800,0.11920267343521118,9.76485824584961,-0.9880607724189759,0.002028568647801876,0.0013776503037661314,0.008313211612403393
1706236115178712707,0.12610541284084323,9.775344848632812,-1.0028842687606814,0.002913176780566573,0.0007661267882212996,0.008165339007973671
1706236115189803800,0.12797340750694275,9.76523208618164,-1.0082485675811768,0.0042702918872237206,8.752670692047104e-05,0.008523666299879551
1706236115198865448,0.1220136433839798,9.769264221191406,-1.0050224065780642,0.005560303572565317,-1.6910638805711642e-05,0.009130619466304779
1706236115209265911,0.12180434912443162,9.756428718566896,-0.9968863725662231,0.006355751771479845,0.0006100725731812418,0.009415549226105213
1706236115219365707,0.12974363565444946,9.759138107299805,-0.9989198446273804,0.006452149245887995,0.0014738102909177542,0.009157383814454079
1706236115228860244,0.11777132749557495,9.772297859191896,-0.9988004565238954,0.005929536186158657,0.0018598816823214293,0.008692541159689426
1706236115238735781,0.11984345316886902,9.757126808166506,-1.0003492832183838,0.005041327327489853,0.0014877761714160442,0.008483795449137688
1706236115254057596,0.13752824068069458,9.770294189453125,-1.0049536228179932,0.004029593896120787,0.0006482194876298308,0.00869050808250904
1706236115262537818,0.1197454407811165,9.7591552734375,-1.006529211997986,0.00324106402695179,-0.00020650800433941185,0.009072680957615376
1706236115269559614,0.1220373660326004,9.767237663269045,-0.9940346479415894,0.0030369653832167387,-0.0007779503357596695,0.009234141558408737
1706236115278950337,0.11984547972679138,9.76958751678467,-0.9983099102973939,0.0033475698437541723,-0.0009441041620448232,0.00906806718558073
1706236115289054596,0.13512125611305237,9.765554428100586,-0.9968651533126831,0.003753672121092677,-0.000651218113489449,0.008898780681192875
1706236115299693429,0.12589365243911743,9.753402709960938,-1.004300594329834,0.004074956756085157,1.8532906324253418e-05,0.00908239372074604
1706236115309696836,0.12312065809965135,9.755754470825195,-0.9944778084754945,0.004481843672692776,0.0006040674052201211,0.009627288207411766
1706236115318728836,0.1282745897769928,9.767230987548828,-1.0006824731826784,0.005061076954007149,0.0004642469575628638,0.010297768749296665
1706236115329608281,0.12019549310207367,9.764170646667482,-0.9970701932907104,0.005630639847368002,-0.0005496734520420432,0.010896485298871994
1706236115339735299,0.13123731315135959,9.767253875732422,-1.0100320577621462,0.005957336165010929,-0.0018618062604218721,0.011285198852419853
1706236115348881040,0.1262359917163849,9.775350570678711,-1.013830065727234,0.005989312659949064,-0.0026391157880425453,0.01118963211774826
1706236115360735855,0.12153354287147522,9.768257141113281,-0.9984069466590882,0.00587064865976572,-0.0022802664898335934,0.010235212743282318
1706236115368785207,0.12530800700187683,9.751388549804688,-1.0086339712142947,0.0057101077400147915,-0.0007643200224265456,0.008398264646530151
1706236115378816040,0.12834027409553528,9.755073547363281,-1.0078980922698975,0.0054849060252308846,0.0010814786655828357,0.0061972904950380325
1706236115388860244,0.12370219826698303,9.76218032836914,-1.0042515993118288,0.005222156643867493,0.001990651246160269,0.004259108100086451
1706236115399757318,0.12327262759208679,9.753742218017578,-1.0063096284866335,0.005019948352128267,0.0012487255735322833,0.002959851874038577
1706236115409671540,0.12939724326133728,9.761852264404297,-1.006972312927246,0.004905110225081444,-0.0008787126862443984,0.0024165967479348183
1706236115419773892,0.124903604388237,9.769266128540039,-0.9995080232620239,0.004875194747000933,-0.0034869504161179066,0.0025416617281734943
1706236115429521892,0.12704588472843173,9.761518478393555,-1.014413595199585,0.004976253490895033,-0.0054852827452123165,0.003118813270702958
1706236115439211540,0.1318800449371338,9.760167121887209,-1.011052131652832,0.005252415779978037,-0.006115271244198084,0.0037894072011113167
1706236115449260373,0.1402835696935654,9.766904830932617,-1.0140117406845095,0.005801577121019363,-0.005371742881834507,0.004036538768559694
1706236115459781466,0.12823675572872165,9.764210700988771,-1.0104420185089111,0.006839612033218145,-0.0038068334106355906,0.00346142309717834
1706236115469879725,0.13575689494609836,9.763201713562013,-1.0132158994674685,0.008451498113572598,-0.002034539356827736,0.002088717417791486
1706236115478932318,0.13656482100486755,9.766578674316406,-1.0097728967666628,0.010382113046944141,-0.00051169004291296,0.0003273859911132604
1706236115489051522,0.13783103227615356,9.770627975463867,-0.9964803457260132,0.012266170233488083,0.0005427978467196226,-0.0012176652671769261
1706236115499063336,0.13157549500465393,9.770627021789553,-1.0052887201309206,0.013873184099793434,0.0012369281612336636,-0.0018655929015949368
1706236115508733985,0.13152161240577698,9.767922401428224,-1.006355404853821,0.015023003332316875,0.0018800547113642097,-0.0011633324902504683
1706236115518814762,0.1368257701396942,9.76218032836914,-1.0109156370162966,0.015526004135608673,0.0026390342973172665,0.0006760746473446488
1706236115529168040,0.1268691569566727,9.766918182373047,-1.0100140571594238,0.015337187796831131,0.0033370235469192266,0.0027953372336924076
1706236115539120225,0.1350879967212677,9.769598007202148,-1.0164293050765993,0.014607228338718414,0.0036688148975372314,0.004214018117636442
1706236115559815262,0.12107987701892853,9.760170936584474,-1.0156902074813845,0.012546401470899582,0.0028522631619125605,0.0029281415045261383
1706236115571587744,0.12721131742000583,9.766914367675781,-1.0134611129760742,0.01153729297220707,0.0016470523551106453,0.0005170957301743329
1706236115579316447,0.1367129683494568,9.774678230285646,-1.013524889945984,0.010448145680129528,0.00014542462304234505,-0.0021913161035627127
1706236115589314651,0.12994486093521118,9.772316932678224,-1.0100771188735964,0.00938416924327612,-0.0009256428456865251,-0.004411756992340088
1706236115599773670,0.12474602460861206,9.768245697021484,-1.0108551979064941,0.008696317672729492,-0.0008203379693441093,-0.005591288674622774
1706236115608747040,0.12966446578502658,9.757116317749023,-1.0043578147888184,0.008509303443133831,0.0005314862937666476,-0.0055271657183766365
1706236115619069651,0.1216256320476532,9.761837959289553,-1.0084171295166016,0.008560673333704472,0.002324787201359868,-0.004330621566623449
1706236115629402540,0.11938223242759705,9.77164936065674,-1.013279914855957,0.00843250285834074,0.003484030021354556,-0.0023838223423808813
1706236115641640799,0.12612624466419223,9.76385498046875,-1.0108946561813357,0.0077679636888206005,0.0035411796998232603,-0.0003292020410299301
1706236115656047762,0.11532343924045563,9.765892982482912,-1.013059377670288,0.006460824981331825,0.0028129955753684044,0.001132154488004744
1706236115658871114,0.11941114068031311,9.749346733093263,-1.0115157365798952,0.004680869169533253,0.0017878959188237786,0.0015907988417893648
1706236115669370484,0.13001224398612976,9.768915176391602,-1.0113378763198855,0.002747738966718316,0.0006179941119626164,0.001088702934794128
1706236115679232503,0.1266074776649475,9.773993492126467,-1.0107734203338623,0.0011624277103692293,-0.0006358381360769272,1.4502394151350018e-05
1706236115688772836,0.11924944072961809,9.768259048461914,-1.0028467178344727,0.0004793498374056071,-0.0015170658007264137,-0.001085470663383603
1706236115698912947,0.11992237716913225,9.770987510681154,-1.017594337463379,0.0008108970359899104,-0.001398269785568118,-0.0017126321326941252
1706236115720279707,0.11677555739879608,9.763191223144531,-1.0148024559020996,0.001637651352211833,-0.0001393348356941715,-0.001722138375043869
1706236115720349466,0.12313187867403032,9.762869834899904,-1.0219171047210693,0.002237098291516304,0.0017151973443105817,-0.0015038844430819154
1706236115729278595,0.12015621364116669,9.768273353576662,-1.0221809148788454,0.002216766821220517,0.0033059704583138227,-0.001724167144857347
1706236115739444077,0.12327132374048234,9.763552665710451,-1.0156906843185427,0.0016754190437495708,0.0040243687108159065,-0.0028406677301973104
1706236115749421781,0.12258496135473253,9.76150417327881,-1.0131511688232422,0.0009951820829883218,0.003777222242206335,-0.004738498013466597
1706236115759971633,0.11365858465433122,9.762189865112305,-1.0173829793930056,0.0005093608633615077,0.0027893269434571266,-0.006748040672391653
1706236115769005688,0.12328934669494629,9.777388572692873,-1.012587308883667,0.0002652274852152914,0.0014422142412513494,-0.008115424774587154
1706236115779913207,0.12368877977132799,9.77231216430664,-1.015488862991333,0.00012612527643796057,0.00036726894904859364,-0.00846139993518591
1706236115788966521,0.1117905154824257,9.76555919647217,-1.010939955711365,3.003872188855894e-05,0.0002545389288570732,-0.007845502346754074
1706236115799870818,0.13009122014045715,9.760175704956055,-1.0171310901641846,-2.917469828389585e-05,0.0012325674761086702,-0.006605077534914017
1706236115811881707,0.12880411744117737,9.76558017730713,-1.0136818885803223,8.609167707618326e-06,0.002631664974614978,-0.005203736945986748
1706236115819723503,0.13028287887573242,9.766942024230959,-1.0272223949432373,0.0004442348435986787,0.003566454630345106,-0.004143366124480963
1706236115829135762,0.1224377676844597,9.76423740386963,-1.0189794301986697,0.0015937647549435496,0.0036297757178545,-0.0038998774252831936
1706236115839403984,0.1341081410646439,9.76928234100342,-1.0144767761230469,0.0033716701436787844,0.002998927840963006,-0.00470556179061532
1706236115849555188,0.1310459524393082,9.767608642578125,-1.0150102376937868,0.005382476840168238,0.002144673839211464,-0.0062440549954771996
1706236115860142910,0.1274366229772568,9.771987915039062,-1.0147098302841189,0.007280849851667881,0.001561142853461206,-0.007751851808279753
1706236115869469577,0.12355460971593858,9.759179115295412,-1.0257698297500613,0.008796125650405884,0.0015365674626082182,-0.008596236817538738
1706236115879882540,0.12759231030941012,9.757128715515138,-1.0141057968139648,0.009618663229048252,0.0019076105672866106,-0.00871665682643652
1706236115888946614,0.13289134204387668,9.765897750854492,-1.013887882232666,0.009593401104211807,0.0020967163145542145,-0.008440815843641758
1706236115898827762,0.12194483727216722,9.768603324890138,-1.0167992115020752,0.008946588262915611,0.0016665098955854774,-0.00800076499581337
1706236115911790225,0.12000542879104614,9.766918182373047,-1.0098956823349001,0.008047965355217457,0.0008020216482691467,-0.007409972138702869
1706236115919860577,0.13005828857421875,9.769315719604492,-1.0210021734237673,0.007050563581287861,9.57064694375731e-05,-0.006659027189016342
1706236115929208206,0.12148036807775499,9.765574455261232,-1.0115302801132204,0.005999972578138113,7.294866463780636e-06,-0.005858250893652439
1706236115939830058,0.126520648598671,9.760162353515625,-1.0155235528945925,0.005051551852375269,0.0005527003086172044,-0.005196643993258476
1706236115949138947,0.13591288030147555,9.766586303710938,-1.0120563507080078,0.004430687054991722,0.0013230838812887669,-0.004767830949276686
1706236115958949169,0.12684653699398044,9.762205123901367,-1.008836269378662,0.004399413708597422,0.001811099937185645,-0.004482810851186514
1706236115969528318,0.13526323437690735,9.763211250305178,-1.0107208490371706,0.005151976831257343,0.0017603570595383644,-0.004129949491471052
1706236115980892558,0.13858686387538913,9.769294738769531,-1.0137039422988894,0.006652040872722864,0.0012409583432599902,-0.00353499804623425
1706236115988789984,0.1495189368724823,9.767277717590334,-1.0076452493667605,0.008779257535934448,0.0005812288145534694,-0.0027255418244749308
1706236115999094484,0.1425183117389679,9.767606735229492,-1.0059150457382204,0.011540229432284832,0.00021194879082031548,-0.0018474089447408915
1706236116009136299,0.1308422535657883,9.756793022155763,-1.0059423446655273,0.014830845408141613,0.00034330252674408257,-0.000936404219828546
1706236116019257355,0.13118824362754822,9.773334503173828,-1.0127232074737549,0.01800227165222168,0.0007816622382961214,5.1835824706358835e-05
1706236116029289762,0.1332192271947861,9.761510848999023,-1.005012035369873,0.020012009888887405,0.0011963328579440713,0.001028065918944776
1706236116039661225,0.12479850649833679,9.762206077575685,-1.0132417678833008,0.020138109102845192,0.001419181120581925,0.0017713841516524553
1706236116048921595,0.12962964177131653,9.757461547851562,-1.0053043365478516,0.01838453859090805,0.001340706367045641,0.0021169644314795732
1706236116060258151,0.13624748587608337,9.764556884765625,-1.0096975564956667,0.015385247766971588,0.0008087243186309934,0.002070062793791294
1706236116069705466,0.13644061982631686,9.770987510681154,-1.01605498790741,0.012208322063088417,-0.00012591089762281626,0.0017529850592836738
1706236116079809003,0.13436187803745273,9.769283294677734,-1.007296085357666,0.009985683485865593,-0.0010010109981521964,0.0012412603246048093
1706236116088832577,0.1411143392324448,9.76522445678711,-1.0099003314971924,0.009384882636368275,-0.0012104901252314448,0.0005741685745306313
1706236116108927780,0.14923186600208285,9.768255233764648,-1.0042055845260622,0.012847328558564186,0.000814952771179378,-0.0005661006434820592
1706236116122336447,0.15807561576366427,9.757476806640625,-1.0170488357543945,0.016242699697613716,0.002271597273647785,-0.0007059792405925691
1706236116129774206,0.1542552560567856,9.773334503173828,-1.0102334022521973,0.02032925747334957,0.0033068901393562555,-0.0005822723614983261
1706236116140098151,0.1409822851419449,9.766899108886719,-1.0062119960784912,0.024706386029720306,0.003627706551924348,-0.0004153033660259098
1706236116149556817,0.14134225249290466,9.765583992004396,-1.0076028108596804,0.02857622504234314,0.0033943187445402145,-0.0003084095660597086
1706236116164602003,0.14357940852642062,9.760157585144045,-1.0058454275131228,0.030893446877598763,0.002934057265520096,-0.00011720519250957295
1706236116169691484,0.1410515755414963,9.761868476867678,-1.0144561529159548,0.031046869233250618,0.0023456672206521034,0.00030401701224036515
1706236116183402132,0.1268829852342606,9.774677276611328,-1.007327198982239,0.02920011803507805,0.0015915605472400784,0.000852773548103869
1706236116189494225,0.13511228561401367,9.759129524230959,-1.0031890869140625,0.02592598646879196,0.0008351648575626314,0.0012954731937497854
1706236116199866003,0.13366171717643738,9.758440971374513,-0.9984993338584901,0.02187255211174488,0.00032780729816295207,0.0016342087183147669
1706236116210176169,0.1236981451511383,9.7743616104126,-1.0142332315444949,0.0177442729473114,5.973297083983198e-05,0.0021426768507808447
1706236116218829947,0.12363786995410919,9.764894485473633,-1.004836440086365,0.014090687967836857,-5.450706885312684e-05,0.0029194497037678957
1706236116229519484,0.12901540100574496,9.762199401855469,-1.0061781406402588,0.011072834022343159,7.86132732173428e-05,0.003687624353915453
1706236116240869688,0.12366870790719987,9.767605781555178,-1.0149608850479128,0.008658885955810547,0.0004746764025185257,0.004105911124497652
1706236116252445077,0.12821219861507419,9.767256736755373,-1.007622480392456,0.006867695599794388,0.000953609764110297,0.003975970204919577
1706236116259724577,0.12236916273832323,9.761841773986818,-1.0107653141021729,0.005719281733036041,0.0013597202487289906,0.0032564427237957716
1706236116269618169,0.12555649876594543,9.759167671203615,-1.0166834592819216,0.005119373556226492,0.0015703559620305896,0.0020966704469174147
1706236116283148780,0.1207655891776085,9.763878822326662,-1.0065578222274782,0.004849661607295275,0.001394355669617653,0.0007410431862808764
1706236116288850966,0.1186855509877205,9.760151863098146,-1.0097540616989138,0.0046221353113651276,0.0007178295054472983,-0.0005385202239267528
1706236116299835706,0.12430705875158311,9.76692008972168,-1.008963465690613,0.00417122570797801,-0.0003125174844171852,-0.0014160377904772758
1706236116309288280,0.11161799728870392,9.757796287536623,-1.0095534324645996,0.003367218654602766,-0.001356830820441246,-0.001660109031945467
1706236116322805317,0.11145660281181335,9.767911911010742,-1.0042028427124023,0.0021699105855077505,-0.0021082067396491766,-0.0012788848252967
1706236116329670984,0.11689283698797227,9.762517929077148,-1.0011330842971804,0.0005146709736436605,-0.0024142637848854065,-0.0003956929431296885
1706236116338878428,0.10090905427932739,9.766233444213867,-1.0091071128845215,-0.0015949745429679751,-0.002245900221168995,0.0008899849490262568
1706236116349995114,0.10413589328527452,9.765876770019531,-1.006296157836914,-0.004075557924807072,-0.0016704826848581433,0.0023894645273685455
1706236116358862299,0.11028491705656053,9.771304130554201,-1.003023386001587,-0.0068596163764595985,-0.0008070481126196682,0.003751763142645359
1706236116369857836,0.10791826248168945,9.767578125,-1.0116775035858154,-0.0097128227353096,0.0002643888583406806,0.004664140287786722
1706236116378847503,0.1156907305121422,9.766231536865234,-1.0086209774017334,-0.012097158469259739,0.0014702646294608712,0.004972478374838829
1706236116392125095,0.11302085220813751,9.763185501098633,-1.0117440223693848,-0.013413197360932827,0.002605602378025651,0.004617787431925535
1706236116399790114,0.11469647288322449,9.748331069946289,-1.0063509941101074,-0.01333620585501194,0.003258494660258293,0.0036738512571901083
1706236116409494354,0.11873792111873627,9.75814437866211,-1.0201501846313477,-0.011975398287177086,0.0028779623098671436,0.0023764967918395996
1706236116419850280,0.11463195830583574,9.758143424987795,-1.0105531215667725,-0.009777652099728584,0.0011310582049190998,0.0009453968959860504
1706236116429063577,0.11320409923791887,9.759152412414553,-1.010595202445984,-0.007340839598327875,-0.0016643027774989605,-0.0004980567027814686
1706236116439249762,0.1162780225276947,9.750364303588867,-1.004230856895447,-0.005277074873447418,-0.004674550145864487,-0.0017307726666331291
1706236116449243632,0.11704866588115692,9.756814956665039,-1.016146540641785,-0.0040008435025811195,-0.007171968929469585,-0.002395070157945156
1706236116459254651,0.11819183081388475,9.764903068542482,-1.0122319459915163,-0.003532114438712597,-0.008816208690404892,-0.0023521888069808483
1706236116469885428,0.12730522453784945,9.760840415954592,-1.0178523063659668,-0.003513902658596635,-0.009425788186490536,-0.0019169070292264223
1706236116478868095,0.13274872303009033,9.765902519226076,-1.009397268295288,-0.003331176470965147,-0.008873099461197853,-0.0016079471679404378
1706236116488911632,0.13165043294429782,9.770970344543459,-1.008350729942322,-0.002295812126249075,-0.007227358408272266,-0.00168982136528939
1706236116499658077,0.14445948600769043,9.762527465820312,-1.0037070512771609,4.559644730761647e-05,-0.00477726012468338,-0.0019499456975609064
1706236116509633151,0.16161696612834933,9.76762580871582,-1.0161699056625368,0.003834251081570983,-0.0019963732920587063,-0.0019367471104487777
1706236116519763428,0.16353727877140048,9.763215065002443,-1.0048246383666992,0.009167445823550224,0.0005105549353174865,-0.0014381561195477843
1706236116529004169,0.17811675369739535,9.777058601379396,-1.0134754180908203,0.0161589328199625,0.0022822399623692036,-0.0006351734045892954
1706236116539861169,0.15941622853279114,9.768612861633303,-1.0102022886276247,0.024581031873822212,0.0033094529062509537,0.00013558917271438986
1706236116549842576,0.16430047154426575,9.77602767944336,-1.0110981464385986,0.033478450030088425,0.003979665692895651,0.0005944457370787859
1706236116558844132,0.16164305806159973,9.764225959777834,-1.0068960189819336,0.0412774421274662,0.004677117802202702,0.0006371540948748589
1706236116571896947,0.15770949423313144,9.759489059448242,-1.0100389719009402,0.04652174934744835,0.005398103501647711,0.0004004217917099595
1706236116579727502,0.14726833999156955,9.773666381835938,-1.0088821649551394,0.0485079400241375,0.005744678899645805,0.00014523796562571079
1706236116589789558,0.16405375301837924,9.769942283630373,-1.0091278553009033,0.047375019639730453,0.005434069782495499,5.4365194955607876e-05
1706236116599023613,0.17085142433643344,9.769982337951662,-1.0160437822341921,0.04412989690899849,0.004716176073998213,0.00012685811088886112
1706236116609077410,0.16858460009098056,9.763216972351076,-1.0137296915054324,0.04055983945727348,0.00407535582780838,0.00016188842710107565
1706236116619345373,0.16796924173831942,9.767585754394531,-1.0087709426879883,0.03846629709005356,0.0037138054613023996,-0.00010164931882172823
1706236116629684484,0.19167989492416382,9.758159637451172,-1.0111746788024902,0.038805507123470306,0.003466828493401408,-0.0006972480332478881
1706236116641778947,0.1842513084411621,9.76220703125,-1.0091131925582888,0.041689515113830566,0.0030106299091130495,-0.001356955268420279
1706236116649624113,0.18187098205089572,9.77740001678467,-1.011062264442444,0.04670792818069458,0.002170143648982048,-0.0017587852198630571
1706236116660768484,0.17155176401138306,9.763224601745607,-1.0171402692794802,0.052819445729255676,0.0012226392282173038,-0.0017928731394931674
1706236116669789225,0.16983430087566379,9.771980285644531,-1.0101603269577029,0.058361031115055084,0.0007286303443834186,-0.0016398313455283642
1706236116680109984,0.15775355696678162,9.76421642303467,-1.0028018951416016,0.061630357056856155,0.0009835291421040893,-0.0015319051453843713
1706236116689547410,0.16346473991870883,9.759151458740234,-1.0028661489486697,0.06159325689077377,0.0017677691066637635,-0.0013739285059273243
1706236116699331965,0.1653403341770172,9.767270088195803,-1.0136942863464355,0.05832614749670029,0.002509999554604292,-0.0008166541811078787
1706236116712105928,0.15772657096385959,9.768273353576662,-1.0030988454818728,0.05300358310341835,0.0027227180544286966,0.00023938097001519054
1706236116718840725,0.16327819228172302,9.76318359375,-0.997948169708252,0.047286082059144974,0.0023832046426832676,0.0015486737247556448
1706236116730957002,0.16517786681652072,9.786471366882326,-0.9996800422668457,0.0425756499171257,0.0018977519357576966,0.0029540141113102436
1706236116738930021,0.17104274034500122,9.766231536865234,-0.995873212814331,0.03973088413476944,0.0018813119968399405,0.004549902398139238
1706236116748924780,0.15972213447093966,9.75575923919678,-0.9951303601264955,0.03904130309820175,0.00270736962556839,0.006439851131290197
1706236116760744187,0.16482879221439364,9.766927719116211,-1.00142502784729,0.040132880210876465,0.003945161122828722,0.008547659032046795
1706236116769538984,0.161533460021019,9.763875961303711,-1.002864718437195,0.04207473620772362,0.004659702070057392,0.010546807199716568
1706236116788719669,0.15764275193214417,9.773665428161623,-1.0031596422195437,0.04383115842938423,0.004374764394015074,0.011921889148652554
1706236116791141632,0.16505342721939087,9.770608901977539,-0.9993115663528442,0.04468926414847374,0.0034476604778319597,0.012276364490389824
1706236116800486299,0.1571457535028458,9.767251014709474,-0.999393105506897,0.04445497319102287,0.00263505638577044,0.01165502518415451
1706236116809667058,0.1672024577856064,9.765894889831545,-1.0081400871276855,0.043422192335128784,0.0024348574224859476,0.010493132285773754
1706236116818965780,0.16625136137008667,9.768600463867188,-1.0046333074569704,0.04217786714434624,0.0027943765744566917,0.009212571196258068
1706236116839914317,0.14890223741531372,9.772000312805178,-1.0138076543807986,0.04128358140587807,0.0033760289661586285,0.007932360284030437
1706236116840002558,0.14085404574871066,9.756768226623537,-1.001868486404419,0.04075334593653679,0.0038915309123694897,0.0065659815445542336
1706236116855907873,0.15445382893085483,9.766229629516602,-1.004594326019287,0.039885763078927994,0.004079554229974747,0.005135029554367065
1706236116864022910,0.13800181448459628,9.76353168487549,-1.0054526329040527,0.03795768693089485,0.0036856108345091343,0.0039246403612196445
1706236116869827373,0.1477554440498352,9.759166717529297,-1.0094429254531863,0.03488923981785774,0.002674977295100689,0.0032380432821810246
1706236116879271743,0.14630876481533053,9.770634651184084,-1.0067470073699951,0.03119303658604622,0.0012956488644704223,0.0030749819707125425
1706236116889969132,0.14180085062980652,9.761513710021974,-1.0054198503494265,0.02764507383108139,-4.027205432066694e-05,0.0031821692828089
1706236116903284299,0.14287716150283813,9.75373649597168,-1.0034849643707275,0.0249013714492321,-0.0009848939953371882,0.0033479833509773016
1706236116911864447,0.1389833688735962,9.763865470886232,-1.0061665773391726,0.02317742258310318,-0.0015622273785993457,0.0035451215226203203
1706236116921326817,0.14313463866710666,9.754784584045412,-1.009317994117737,0.02227414771914482,-0.002089024754241109,0.0037998247426003218
1706236116931919724,0.14524795114994052,9.764204978942873,-1.003099322319031,0.021870769560337067,-0.002777949906885624,0.004037271253764629
1706236116939827428,0.1290268898010254,9.7490234375,-1.0070062875747683,0.02171378955245018,-0.0036196201108396053,0.004154888913035393
1706236116951855169,0.1342049539089203,9.764893531799318,-1.0168517827987673,0.021480072289705276,-0.004537307191640139,0.004099186975508928
1706236116958962002,0.13465274870395663,9.773336410522461,-1.0168758630752566,0.020726706832647324,-0.00534652266651392,0.0036993357352912426
1706236116970044669,0.12149721384048462,9.765565872192383,-1.008986830711365,0.019184667617082596,-0.00556174386292696,0.00266754487529397
1706236116979424502,0.126970112323761,9.76487922668457,-1.0128866434097292,0.016864154487848282,-0.0046852040104568005,0.0009910536464303732
1706236116990457743,0.11562698334455492,9.761857986450195,-1.0160187482833865,0.013886883854866028,-0.0028049733955413103,-0.0009151065605692565
1706236117000450206,0.10817587375640869,9.757771492004396,-1.0043282508850098,0.010368545539677143,-0.0006605120142921805,-0.002530472120270133
1706236117009516780,0.10545572638511658,9.75881099700928,-1.008803725242615,0.006319644395262003,0.000822733505629003,-0.0034459244925528765
1706236117020109521,0.11272378265857697,9.766558647155763,-1.00187885761261,0.0017363104270771146,0.0010713479714468122,-0.003367202589288354
1706236117029904428,0.11579892784357072,9.760500907897951,-1.0154471397399902,-0.0030297969933599234,0.0001945427356986329,-0.0022597077768296003
1706236117039000058,0.10277760773897172,9.758450508117678,-1.0045757293701172,-0.00720987468957901,-0.0011980311246588826,-0.0005193576798774302
1706236117049060761,0.10900067538022996,9.753744125366211,-1.0130134820938113,-0.010166218504309654,-0.0025676568038761616,0.0011846312554553151
1706236117063980780,0.10179730504751207,9.749357223510742,-1.009211540222168,-0.01186366006731987,-0.003812780836597085,0.0022901666816323996
1706236117071886928,0.10218635201454163,9.76657009124756,-1.0081145763397217,-0.012753776274621487,-0.0051048630848526955,0.0025734533555805683
1706236117079896780,0.09773559868335724,9.762516975402834,-0.9999250173568726,-0.01343495398759842,-0.006383909378200769,0.002217890927568078
1706236117089304150,0.09809675067663194,9.762539863586428,-1.0136874914169314,-0.014407437294721603,-0.007168533280491829,0.0017225921619683504
1706236117101245132,0.08666474372148515,9.74834728240967,-1.019215226173401,-0.015960481017827988,-0.0070717656053602695,0.0014476790092885494
1706236117109197798,0.09278538078069688,9.763504028320312,-1.0076290369033816,-0.018206380307674408,-0.006328987888991833,0.0012284877011552453
1706236117119488724,0.08477136492729187,9.757444381713867,-1.001899003982544,-0.021098319441080093,-0.0055474149994552135,0.0007546576671302319
1706236117129084298,0.09986566007137299,9.752714157104492,-1.0000665187835693,-0.024333061650395393,-0.005139962304383516,0.00022370881924871355
1706236117139514428,0.11188853532075883,9.766233444213867,-1.001744866371155,-0.027203308418393135,-0.005195246543735266,0.0002724377845879644
1706236117149558706,0.1213403567671776,9.761850357055664,-1.0120198726654053,-0.028559023514389992,-0.005524960346519947,0.001295406837016344
1706236117159462706,0.12921090424060824,9.772300720214844,-0.9971905350685121,-0.02717837318778038,-0.005658370908349752,0.0030230849515646696
1706236117169382817,0.1269459575414658,9.767925262451172,-1.00836181640625,-0.022471444681286812,-0.005054438952356577,0.00481188902631402
1706236117178958595,0.12948574125766757,9.775681495666506,-1.0063683986663818,-0.014968359842896461,-0.0034159631468355656,0.006139329634606838
1706236117189240206,0.12112683802843095,9.765568733215334,-1.0088422298431396,-0.0062307207845151424,-0.0008552321814931929,0.006715649738907814
1706236117199704465,0.11287692189216614,9.764872550964357,-1.004549503326416,0.0016833808040246367,0.0020749690011143684,0.0064590624533593655
1706236117209654039,0.11043693870306016,9.76961898803711,-1.0149492025375368,0.006873567588627338,0.004552801605314016,0.005527930334210396
1706236117219957132,0.11381840705871582,9.765940666198732,-1.0073611736297607,0.008249378763139248,0.005933270324021578,0.00419648690149188
1706236117230911409,0.10365386307239532,9.769683837890625,-1.0141675472259521,0.005954883061349392,0.006103430408984423,0.002701105084270239
1706236117249034780,0.11656176298856737,9.763598442077638,-1.0110278129577637,0.0012025239411741495,0.005401101894676685,0.001228237641043961
1706236117249112298,0.13119693100452426,9.773048400878906,-1.007031321525574,-0.004191379062831402,0.0043232375755906105,-5.208808579482138e-05
1706236117258996817,0.14218522608280185,9.771381378173828,-1.0076231956481934,-0.008123894222080708,0.003367851721122861,-0.0009348693420179188
1706236117269095835,0.14714740216732028,9.763918876647951,-0.9971439838409424,-0.008683150634169579,0.002931606722995639,-0.0011545817833393812
1706236117279202872,0.15169791877269748,9.765629768371584,-1.012314796447754,-0.004926320631057024,0.0030724804382771254,-0.0005026091821491718
1706236117289591613,0.126671701669693,9.76493549346924,-1.0149906873703005,0.002526233671233058,0.003437182866036892,0.0008650527452118695
1706236117299418909,0.12218337506055833,9.766960144042969,-1.0173114538192751,0.01141483522951603,0.003588141640648246,0.002228177385404706
1706236117321429483,0.11952753365039825,9.772043228149414,-1.0150815248489382,0.01858627423644066,0.003372751409187913,0.00266846246086061
1706236117321506706,0.12395124882459642,9.771321296691896,-1.0052504539489746,0.02154615893959999,0.0030193766579031944,0.0017761853523552418
1706236117324757558,0.12191153317689897,9.760879516601562,-1.0054434537887575,0.019734356552362442,0.002889883704483509,2.0112951460760087e-05
1706236117339819113,0.12279827147722246,9.768639564514162,-1.0109318494796755,0.014510123990476131,0.003068201942369342,-0.0015810682671144605
1706236117347886483,0.10873951017856598,9.76594638824463,-1.0066335201263428,0.00806442927569151,0.0033031401690095663,-0.0022254011128097773
1706236117358270150,0.10373218357563019,9.764253616333008,-1.009703040122986,0.0021268134005367756,0.003336349967867136,-0.0017789406701922417
1706236117371850595,0.10144323855638505,9.765282630920412,-1.0170003175735476,-0.0027048499323427677,0.003077442292124033,-0.0006665883120149374
1706236117379180946,0.10358560830354692,9.773699760437013,-1.01280152797699,-0.006678898353129625,0.0025984093081206083,0.0004035702149849385
1706236117389906187,0.10518522560596466,9.76833248138428,-1.0258402824401855,-0.010151101276278496,0.0021741085220128298,0.0007253530784510076
1706236117404059891,0.10615957528352739,9.758533477783203,-1.0136423110961914,-0.013136575929820538,0.0021024001762270927,-0.0001258655684068799
1706236117408359780,0.09686751663684845,9.76458740234375,-1.0144230127334597,-0.015411418862640858,0.002309750998392701,-0.0020671908278018236
1706236117418177983,0.08827361464500427,9.772704124450685,-1.0220631361007693,-0.01696205884218216,0.00241864169947803,-0.00448882719501853
1706236117430486150,0.10346385836601257,9.767623901367188,-1.0154893398284912,-0.018205421045422554,0.002293100580573082,-0.006658600643277168
1706236117438929761,0.11713186651468278,9.76359272003174,-1.0161974430084229,-0.01946750469505787,0.002162795513868332,-0.008138145320117474
1706236117448228372,0.12128419429063798,9.76730251312256,-1.0186542272567751,-0.020277228206396103,0.0021994176786392927,-0.008799799717962742
1706236117458265817,0.1334247887134552,9.755473136901857,-1.002200484275818,-0.01951020397245884,0.0022738673724234104,-0.008677096106112003
1706236117468964909,0.13706402480602267,9.762932777404787,-1.0166261196136475,-0.01620805636048317,0.0020644254982471466,-0.007814289070665836
1706236117477959835,0.14650444686412814,9.759220123291016,-1.0200809240341189,-0.010162700898945332,0.0012946827337145805,-0.006343974731862545
1706236117488056706,0.1426769196987152,9.76732063293457,-1.009814977645874,-0.0019952377770096064,5.4505434832208266e-08,-0.004732227418571711
1706236117498637446,0.14725977182388306,9.782505989074709,-1.017763614654541,0.007058035582304001,-0.0013122557429596782,-0.003567722160369158
1706236117508769798,0.15284000337123874,9.76462173461914,-1.0126368999481201,0.015571840107440948,-0.0017930343747138977,-0.0031167189590632915
1706236117518003613,0.16295923292636874,9.77880382537842,-1.0136654376983643,0.02253824844956398,-0.0008154764655046165,-0.003273037727922201
1706236117528256354,0.14257557690143588,9.771365165710451,-1.0125408172607422,0.02769058756530285,0.0015241430373862386,-0.003730783937498927
1706236117539166706,0.15143258869647983,9.768994331359865,-1.0137734413146973,0.03113383986055851,0.004528355784714222,-0.0041496786288917065
1706236117548119946,0.13837878406047824,9.772054672241211,-1.0137411355972292,0.03286224231123924,0.007295198738574982,-0.004318599589169025
1706236117558449391,0.135248139500618,9.774410247802734,-1.0093393325805664,0.0327635332942009,0.009110565297305584,-0.00420010183006525
1706236117569081946,0.14504903554916382,9.770364761352539,-1.0245082378387451,0.030877776443958282,0.009772585704922676,-0.0038901218213140965
1706236117577951168,0.1392900496721268,9.769000053405763,-1.0129270553588867,0.02767709456384182,0.009526833891868591,-0.003644243348389864
1706236117587952743,0.15564727783203125,9.767327308654787,-1.018447518348694,0.024156782776117325,0.008717481978237629,-0.003779419232159853
1706236117598361150,0.15440846979618075,9.764636039733888,-1.0060099363327029,0.021568352356553078,0.007574958261102438,-0.004346741829067469
1706236117608654705,0.15779852867126465,9.766641616821289,-1.0096755027770996,0.020960770547389984,0.0062207989394664764,-0.004964149557054043
1706236117618862502,0.16134938597679138,9.764942169189453,-1.0077494382858279,0.022732248529791832,0.004762078635394573,-0.005055048502981663
1706236117628558798,0.15821571648120883,9.766620635986328,-1.0003032684326172,0.026471974328160286,0.0033591596875339746,-0.004234399646520615
1706236117640981743,0.1473045200109482,9.766306877136232,-1.0135858058929443,0.031127458438277245,0.0022036894224584103,-0.0024997449945658445
1706236117648092094,0.1530408710241318,9.769685745239258,-1.006448745727539,0.035298459231853485,0.001463117660023272,-0.0002554739185143262
1706236117658132576,0.14571699500083923,9.766286849975586,-1.0073105096817019,0.037737369537353516,0.0012397071113809943,0.0018330030143260956
1706236117668456076,0.14477255940437317,9.762918472290039,-1.0109946727752686,0.03786846995353699,0.0014862591633573174,0.0032159576658159494
1706236117678505650,0.13670605421066284,9.761224746704102,-1.0072007179260254,0.03585107997059822,0.0019150255247950554,0.003698002314195037
1706236117687961335,0.14145548641681674,9.769670486450195,-1.0113112926483154,0.03228441998362541,0.0021248897537589073,0.0033867291640490294
1706236117698819687,0.14522419869899753,9.774721145629883,-0.9977740049362183,0.028005437925457954,0.001988819567486644,0.0026214870158582926
1706236117708255094,0.1356789767742157,9.754151344299318,-1.0097787380218506,0.02397123910486698,0.0017805472016334534,0.001917551038786769
1706236117718861317,0.13404895365238192,9.755836486816406,-1.0029876232147217,0.0208998154848814,0.0016550951404497027,0.0017336464952677488
1706236117729280983,0.12670816481113437,9.759204864501953,-1.0064079761505127,0.018865028396248817,0.0012485060142353177,0.0021864972077310085
1706236117738991668,0.13204149901866916,9.772027969360352,-1.0020196437835693,0.0173687431961298,0.0001842864730861038,0.0030714513268321753
1706236117747974520,0.12360855191946031,9.767642974853516,-1.0012151002883913,0.01582060195505619,-0.0012327551376074553,0.004121110308915377
1706236117758430613,0.1350862979888916,9.760221481323242,-1.0043435096740723,0.013941642828285694,-0.002209284109994769,0.005166799761354923
1706236117768914094,0.13974164426326754,9.762264251708984,-1.0072875022888184,0.011942355893552303,-0.0022869594395160675,0.006081050261855125
1706236117779076428,0.13562580943107605,9.765279769897461,-1.0040825605392458,0.010465724393725395,-0.0016900384798645973,0.0066736722365021706
1706236117787986279,0.13719451427459717,9.765609741210938,-1.011000633239746,0.010145273990929127,-0.0009057294228114188,0.0067552682012319565
1706236117798469761,0.13414081931114197,9.758180618286133,-0.999773383140564,0.011087981052696705,-0.0002660767931956798,0.006287107244133949
1706236117808730687,0.12216532975435258,9.756169319152834,-1.0021841526031494,0.012752269394695759,3.3453279684181325e-06,0.005495107267051935
1706236117818581594,0.11271097511053087,9.762252807617188,-1.0102232694625857,0.014098448678851128,-0.00032666369224898517,0.004798424430191517
1706236117830829854,0.11358507722616197,9.758184432983398,-1.0018973350524902,0.013915149495005608,-0.001306629623286426,0.004469793289899826
1706236117838543224,0.11971253156661987,9.760892868041992,-1.005238175392151,0.011471333913505077,-0.002664745319634676,0.004475135821849108
1706236117848706224,0.1114194244146347,9.763581275939943,-1.0046213865280154,0.00707606878131628,-0.003958556801080704,0.004674626048654318
1706236117858129353,0.10934524238109589,9.762924194335938,-1.0085206031799316,0.0018494053510949016,-0.004775348585098982,0.004937177989631891
1706236117868299465,0.10727602988481523,9.757165908813477,-1.0053224563598633,-0.0030753102619200945,-0.004895616322755814,0.005098629742860794
1706236117878266261,0.10026918351650238,9.757831573486328,-1.0080416202545166,-0.00709191057831049,-0.004462583921849728,0.005014559719711542
1706236117888200409,0.09716296195983887,9.755463600158693,-1.0046240091323855,-0.010192490182816982,-0.003942186012864113,0.004665600601583719
1706236117899249798,0.09420211613178253,9.758162498474123,-1.0035997629165652,-0.01278652809560299,-0.0038126178551465273,0.0041894433088600636
1706236117908319298,0.08803021162748338,9.753108978271484,-0.9938654303550721,-0.015393831767141819,-0.0042863343842327595,0.0038783608470112085
1706236117928733261,0.0809844434261322,9.756819725036623,-1.0013127326965332,-0.018419282510876656,-0.005284907296299934,0.004125186707824469
1706236117928807890,0.0877465531229973,9.760861396789553,-0.9967302680015565,-0.022063834592700005,-0.006530239712446928,0.005189503543078899
1706236117938856557,0.08235886693000793,9.756808280944826,-1.0038540363311768,-0.026195382699370384,-0.007612924557179213,0.006932678632438183
1706236117948191242,0.09264524281024933,9.757176399230959,-1.008744716644287,-0.030278323218226433,-0.008173290640115738,0.008793774992227554
1706236117963451039,0.08020473271608354,9.756840705871584,-1.0099923610687256,-0.03359039127826691,-0.008138004690408707,0.009992129169404507
1706236117972054039,0.09477323293685913,9.765256881713867,-0.9939713478088379,-0.03560837358236313,-0.007680169772356749,0.009960409253835678
1706236117978229242,0.1070506051182747,9.761549949645998,-1.0060203075408936,-0.036105118691921234,-0.006942741107195616,0.008834646083414555
1706236117989284502,0.11873390525579454,9.76527214050293,-1.0053397417068484,-0.03481610119342804,-0.0059272670187056065,0.007342511788010597
1706236117999103816,0.1362043023109436,9.767959594726562,-1.0005176067352295,-0.031233733519911766,-0.00461295573040843,0.00614465307444334
1706236118011846909,0.14808431267738342,9.771340370178224,-1.0029833316802979,-0.024833980947732925,-0.0030115393456071615,0.005523368716239929
1706236118019330057,0.15071697533130649,9.770332336425781,-1.0046714544296267,-0.015474334359169006,-0.0011333436705172062,0.005499162245541811
1706236118031898427,0.1548111587762833,9.775034904479982,-1.0032017230987549,-0.003760888008400798,0.0009781981352716684,0.005895183887332678
1706236118039874298,0.14785456657409668,9.774730682373047,-1.008289098739624,0.008849683217704296,0.0032163909636437893,0.006389417685568333
1706236118051259520,0.1392580419778824,9.766609191894531,-1.0011881589889529,0.020348839461803436,0.0054024565033614635,0.006669164169579744
1706236118059859557,0.14156073331832886,9.775405883789062,-1.0051355361938477,0.02875104919075966,0.007241043262183666,0.006601525936275721
1706236118071182835,0.13747438788414001,9.768638610839844,-1.004557013511658,0.032817743718624115,0.0084227891638875,0.006282050162553787
1706236118078100835,0.14350335299968722,9.776067733764648,-1.0056363344192507,0.03259344771504402,0.00885634683072567,0.00588817335665226
1706236118092152446,0.14655028283596042,9.771682739257812,-1.01009476184845,0.029374228790402412,0.00873548723757267,0.005502879153937101
1706236118098123205,0.1445026397705078,9.767964363098146,-0.9954352974891664,0.025135550647974014,0.00837202649563551,0.005122643429785967
1706236118108852279,0.13475245237350464,9.769643783569336,-1.0008857250213623,0.02164088562130928,0.00794642698019743,0.004867196083068848
1706236118118844094,0.1426942199468613,9.757155418395998,-0.9985390901565552,0.019694088026881218,0.007386051584035158,0.005048451013863087
1706236118128609150,0.1454060673713684,9.775723457336428,-1.0002318620681765,0.01915985904633999,0.006486671976745129,0.0058809430338442326
1706236118138036724,0.15893331170082092,9.77608871459961,-1.0086681842803955,0.019656848162412643,0.005284580402076244,0.0071960631757974625
1706236118148060390,0.15438362956047058,9.767641067504883,-1.008379101753235,0.021096082404255867,0.004276977851986885,0.008433494716882706
1706236118158081594,0.16678898036479953,9.772711753845217,-1.0128350257873535,0.023611953482031822,0.0039976187981665134,0.008885006420314312
1706236118169103613,0.16442354023456576,9.76460361480713,-1.0098648071289062,0.02723764069378376,0.004478811752051115,0.008088233880698681
1706236118178658113,0.15828964114189148,9.768655776977539,-1.005967617034912,0.031693149358034134,0.005276605486869812,0.0061261397786438465
1706236118188137224,0.14482967555522921,9.759195327758789,-1.0038846731185915,0.03621012717485428,0.005802641157060862,0.0036516208201646805
1706236118199777020,0.15673118829727173,9.758528709411623,-1.0135183334350586,0.039589956402778625,0.0055623603984713554,0.0015458918642252684
1706236118208329872,0.14736272394657138,9.763250350952148,-1.0107089281082156,0.04083103686571121,0.0043021636083722115,0.0003397722030058503
1706236118218711168,0.1441909670829773,9.764607429504396,-1.008233189582825,0.03973902389407158,0.0021927724592387676,-4.1347022488480434e-05
1706236118229004520,0.146810457110405,9.780477523803711,-1.0157233476638796,0.036842815577983856,-6.044111796654761e-05,6.473418125096941e-06
1706236118239909390,0.13753369450569153,9.771688461303711,-1.0034725666046143,0.03297335281968117,-0.0014113846700638533,0.00011817034828709438
1706236118248840946,0.14450897276401523,9.761556625366211,-1.0114779472351074,0.02894618920981884,-0.0010972614400088787,0.0001385359646519646
1706236118258833261,0.1376531422138214,9.763919830322266,-1.00523579120636,0.025376012548804283,0.0006662682280875742,0.00014782238577026874
1706236118267995187,0.14475113153457642,9.77035140991211,-1.020765781402588,0.022634411230683327,0.002805821830406785,0.00024562704493291676
1706236118278442112,0.12696844339370728,9.766975402832031,-1.0158606767654421,0.020819831639528275,0.004317480139434338,0.0002657177683431655
1706236118288151131,0.1385289430618286,9.759542465209961,-1.007866978645325,0.019672883674502373,0.004831431899219751,-0.0001414933503838256
1706236118298380038,0.13894616067409518,9.765974044799805,-1.0244472026824951,0.01874585822224617,0.004402734339237213,-0.0011047855950891972
1706236118308087353,0.14470013976097107,9.77474117279053,-1.0146191120147705,0.01786475069820881,0.0033081709407269955,-0.0024635959416627884
1706236118318483261,0.13921889662742615,9.757195472717287,-1.0142253637313845,0.017286421731114388,0.002076365053653717,-0.003997958265244961
1706236118328645390,0.14412687718868258,9.76191520690918,-1.0184336900711062,0.01734042912721634,0.001168166403658688,-0.0054386374540627
1706236118337918372,0.14791671931743625,9.763585090637209,-1.0159229040145876,0.018118463456630707,0.0005839599762111902,-0.006502468138933182
1706236118349670649,0.134009450674057,9.764611244201662,-1.0084407329559326,0.019462302327156067,8.469427848467603e-05,-0.007035394199192524
1706236118358401279,0.14345300197601318,9.756522178649904,-1.016941785812378,0.0209666658192873,-0.000437959679402411,-0.006971662864089012
1706236118368136594,0.14092615246772766,9.766637802124023,-1.0153107643127441,0.022096389904618263,-0.0009896638803184032,-0.006350947543978691
1706236118378761464,0.13275377452373507,9.759217262268068,-1.015531063079834,0.02249879390001297,-0.0015514917904511094,-0.005449508782476187
1706236118389019205,0.12248944491147996,9.763256072998047,-1.023743510246277,0.022007694467902184,-0.0020458376966416836,-0.004707401152700186
1706236118401495372,0.13480058312416077,9.767991065979006,-1.0199999809265137,0.020444022491574287,-0.0023588959593325853,-0.004548514727503061
1706236118408970890,0.13785241544246676,9.76528835296631,-1.0149567127227783,0.017873279750347137,-0.0023450967855751514,-0.005192382726818323
1706236118418094816,0.11609416455030443,9.759186744689943,-1.0122268199920654,0.014879629015922546,-0.0019064738880842924,-0.006412622518837452
1706236118427944224,0.11646141111850739,9.766297340393068,-1.0099530220031738,0.012035955674946308,-0.0011874401243403554,-0.007543324492871761
1706236118440298316,0.11888556182384491,9.769655227661133,-1.0108653306961062,0.009314090013504028,-0.00047794851707294583,-0.00787387602031231
1706236118450884464,0.12410829216241838,9.775768280029297,-1.0115747451782227,0.006446676794439554,0.0001687097828835249,-0.007085186894983053
1706236118458914353,0.11845599114894867,9.765625953674318,-1.0161104202270508,0.00355829787440598,0.0010093837045133114,-0.005420282017439604
1706236118469132501,0.13475812971591952,9.766650199890138,-1.0096477270126345,0.0011808975832536817,0.0022038279566913843,-0.0035205541644245386
1706236118479011835,0.12793035805225375,9.762597084045412,-1.01239013671875,-5.2330557082314044e-05,0.0034786302130669355,-0.002015851903706789
1706236118489016057,0.14749863743782043,9.769354820251467,-1.0237747430801394,0.0003684672701638192,0.004318625666201115,-0.0012499798322096467
1706236118497968205,0.15867021679878235,9.757871627807617,-1.0140429735183718,0.0027742849197238684,0.0043898639269173145,-0.0013747847406193614
1706236118509325353,0.1553187072277069,9.763949394226076,-1.0153517723083496,0.007358739152550697,0.0036656614392995834,-0.00238154293037951
1706236118518090594,0.15300200879573825,9.762261390686037,-1.013944387435913,0.013921710662543774,0.002319453749805689,-0.003922177478671074
1706236118528437020,0.15218572318553927,9.763956069946289,-1.0107773542404177,0.021487195044755936,0.0006856626714579761,-0.005380813032388687
1706236118538517538,0.15107132494449618,9.760578155517578,-1.0126048326492312,0.028512366116046906,-0.000818225322291255,-0.006195734720677137
1706236118548870038,0.13365969061851501,9.774386405944826,-1.0116229057312012,0.033524855971336365,-0.0018379997927695513,-0.006105656269937754
1706236118557921057,0.13445417582988742,9.761908531188967,-1.0163373947143555,0.03550378605723381,-0.0021121930330991745,-0.005244971718639135
1706236118568614205,0.12765853106975558,9.76256847381592,-1.0129619836807253,0.034038737416267395,-0.0015770316822454333,-0.004066417925059795
1706236118578580316,0.11566209048032762,9.753470420837404,-1.0100375413894656,0.029450802132487297,-0.0006103790365159512,-0.003064819611608982
1706236118588926779,0.11049250513315202,9.758862495422365,-1.015103816986084,0.022595789283514023,3.903586548403837e-05,-0.002484366297721863
1706236118598460279,0.1338412016630173,9.76698112487793,-1.0100277662277224,0.014591558836400509,-0.00021079117141198367,-0.002291190205141902
1706236118608466668,0.1332133710384369,9.761898040771484,-1.0078604221343994,0.006957249715924263,-0.0012704409891739488,-0.0023066250141710043
1706236118618539872,0.14228668808937073,9.766648292541506,-1.000861406326294,0.0015691667795181274,-0.0024794237688183784,-0.002226836048066616
1706236118628481742,0.14670498669147494,9.771021842956545,-1.0075225830078125,-8.569588680984452e-05,-0.0031289649195969105,-0.0016679123509675264
1706236118638565297,0.14016292989254,9.760208129882812,-1.0021839141845703,0.0023260971065610647,-0.0028304453007876873,-0.0004145224520470947
1706236118648892020,0.15372046828269958,9.770000457763672,-1.0060052871704102,0.007857210002839565,-0.0016642772825434804,0.0013863909989595413
1706236118658460446,0.14124679565429688,9.763256072998047,-1.0037825107574463,0.014787796884775162,-9.957804286386818e-05,0.003324613207951188
1706236118669124279,0.1387740969657898,9.765970230102539,-1.014216661453247,0.0212995745241642,0.0013248641043901443,0.004919967148452997
1706236118679059816,0.13047502934932712,9.775074958801271,-1.0050052404403689,0.025854818522930145,0.002291257493197918,0.005739098880439997
1706236118688874538,0.12972579896450046,9.764252662658693,-1.0051501989364626,0.02744273655116558,0.002835858380421996,0.005594619549810886
1706236118699816705,0.13304443657398227,9.76865863800049,-1.0073747634887695,0.025887083262205124,0.003194990335032344,0.00473867217078805
1706236118708955983,0.12153345346450806,9.757519721984865,-1.0080019235610964,0.021925337612628937,0.0034448830410838127,0.003687057876959443
1706236118718397612,0.12084493786096574,9.761892318725586,-1.0136358737945557,0.016774974763393402,0.0033680300693958998,0.0028079976327717304
1706236118730481853,0.12124879658222198,9.765955924987795,-1.0035640001297,0.011516207829117775,0.0026987637393176556,0.002160899341106415
1706236118758299853,0.11102873831987382,9.767298698425295,-1.0007681846618652,0.000426856626290828,-0.0018811514601111412,0.0014862449606880546
1706236118768628094,0.12048599123954773,9.764276504516602,-1.008603811264038,-0.0013985909754410386,-0.0031166882254183292,0.0019133787136524916
1706236118788893279,0.12053453922271729,9.769659996032717,-1.0053637027740479,-0.0030161936301738024,-0.0030501384753733873,0.0035400576889514923
1706236118798489501,0.12248484790325165,9.7713623046875,-1.0089497566223145,-0.002688760869204998,-0.00209082942456007,0.004182613454759121
1706236118808493260,0.1100885421037674,9.757854461669922,-1.00239896774292,-0.0017232337268069386,-0.0008570588543079793,0.004444441292434931
1706236118818679483,0.10740731656551361,9.764941215515138,-1.0054645538330078,-0.0007325317128561437,0.00040518122841604054,0.004385008011013269
1706236118828572131,0.10705825686454773,9.760208129882812,-1.007611155509949,-0.0005832817987538874,0.0012800986878573895,0.004212516825646162
1706236118838684649,0.10400139540433885,9.76529312133789,-1.0131762027740479,-0.0018940526060760021,0.0014397542690858245,0.0040491679683327675
1706236118847965686,0.09833073616027832,9.76461410522461,-1.0172697305679324,-0.004689360037446022,0.0009230051655322313,0.003732679644599557
1706236118858777945,0.09402414411306383,9.757518768310547,-1.0073740482330322,-0.008546357043087482,5.805740875075571e-05,0.002941407263278961
1706236118869310612,0.1111847683787346,9.761232376098633,-1.0113323926925661,-0.012852778658270836,-0.0008546221652068198,0.0015944959595799446
1706236118878657649,0.09461490064859392,9.758530616760256,-1.0148872137069704,-0.016831975430250168,-0.0017259875312447548,1.7849699361249804e-05
1706236118888361112,0.08954992890357971,9.755834579467773,-1.0141624212265017,-0.01979770138859749,-0.002592017874121666,-0.001384989358484745
1706236118899151371,0.10806622356176378,9.764616012573242,-1.0063445568084717,-0.021613990887999535,-0.003478691214695573,-0.002412807196378708
1706236118908952520,0.09259051084518433,9.756848335266115,-1.0155067443847656,-0.022545764222741127,-0.004303948953747749,-0.0029725846834480762
1706236118918031001,0.0938001275062561,9.758889198303224,-1.01060688495636,-0.022867482155561447,-0.004908674396574497,-0.003034755354747176
1706236118929057853,0.0866452008485794,9.759187698364258,-1.0051062107086182,-0.022959796711802483,-0.005232378374785185,-0.0026976477820426226
1706236118938304297,0.08721791952848436,9.75953769683838,-1.0101085901260378,-0.023386068642139435,-0.005345305893570185,-0.0020680346060544252
1706236118948142742,0.08531244099140167,9.769657135009766,-1.0067301988601687,-0.024603785946965218,-0.005280863959342241,-0.001187557470984757
1706236118958885019,0.09527762234210968,9.764937400817873,-1.0136032104492188,-0.026644224300980568,-0.004896695725619793,-0.00017396363546140492
1706236118968144223,0.1027558445930481,9.762583732604982,-1.0139107704162598,-0.028943803161382675,-0.0039952886290848255,0.0006848909542895854
1706236118978126816,0.09810330718755723,9.766618728637695,-1.009289622306824,-0.030499238520860672,-0.0026248323265463114,0.0010436191223561764
1706236118988908890,0.1168476790189743,9.769659996032717,-1.0073816776275635,-0.03038724511861801,-0.0010881217895075679,0.0007834150455892086
1706236118998262445,0.11586609482765198,9.758517265319826,-1.0005908012390137,-0.02815086767077446,0.00031415181001648307,0.00021689367713406682
1706236119014086038,0.12482912093400957,9.78519058227539,-1.0090798139572146,-0.023807300254702568,0.0014255931600928307,-7.295835530385375e-05
1706236119018918575,0.12297363579273224,9.765624046325685,-1.0127505064010622,-0.017805663868784904,0.0023541885893791914,0.00028366781771183014
1706236119028651205,0.11977607011795044,9.768992424011232,-1.0079911947250368,-0.011018331162631512,0.0033840283285826445,0.0010973319876939058
1706236119038767408,0.1322101354598999,9.761219024658203,-1.011305332183838,-0.004548618104308844,0.00450702290982008,0.0018390958430245519
1706236119048269390,0.1239602118730545,9.764263153076172,-1.0080928802490234,0.0007064901292324066,0.005269311834126711,0.0021218578331172466
1706236119058879834,0.12136555463075639,9.781495094299318,-1.0119427442550661,0.004339017439633608,0.005276578012853861,0.0018883729353547096
1706236119069316668,0.11829005181789398,9.780132293701172,-1.0048826932907107,0.006258463487029076,0.004801595583558083,0.001322430558502674
1706236119078216890,0.1299765706062317,9.765954017639162,-1.005722999572754,0.006553789135068655,0.004678179044276476,0.0007476832834072411
1706236119088089575,0.1321290135383606,9.759204864501953,-1.0078089237213135,0.005715400446206331,0.0053512766025960445,0.0005154515383765101
1706236119099282297,0.14096020162105563,9.777428627014162,-1.0071977376937868,0.004739714320749044,0.006333571393042803,0.0007980439113453031
1706236119108841871,0.14717964828014377,9.769678115844727,-1.010590195655823,0.004793048836290836,0.006901171524077654,0.0014578046975657344
1706236119118092408,0.1525939702987671,9.75954341888428,-1.0055927038192751,0.006737279240041971,0.006836512591689825,0.0021619987674057484
1706236119128730649,0.15352495014667514,9.773717880249023,-1.0079730749130251,0.010818622075021267,0.006247323472052813,0.0026339604519307613
1706236119138097038,0.1519303768873215,9.776082992553711,-1.0007947683334353,0.016559183597564697,0.0053453524596989155,0.002836494008079171
1706236119149199705,0.1577029526233673,9.768987655639648,-1.001236915588379,0.022916371002793312,0.0045856875367462635,0.0029909086879342794
1706236119158892630,0.14271807670593262,9.763261795043945,-1.0174328088760378,0.028673389926552773,0.004392072558403015,0.003353237872943282
1706236119168363316,0.13606199622154236,9.768310546875,-1.0085716247558594,0.03271340951323509,0.004672784358263016,0.003824088256806135
1706236119178365186,0.13745734095573425,9.772366523742678,-1.014719367027283,0.034141894429922104,0.004979517310857773,0.0039248839020729065
1706236119188575871,0.14355099201202393,9.765955924987795,-1.0120207071304324,0.03266100212931633,0.005043668206781149,0.0032635892275720835
1706236119198747519,0.1349240988492966,9.759864807128906,-1.0045415163040163,0.028944265097379684,0.004852350801229477,0.0018951687961816788
1706236119208392908,0.1290198266506195,9.762239456176758,-1.0067434310913086,0.024289969354867935,0.00433245487511158,0.00033692046417854726
1706236119218019630,0.12278267741203308,9.763906478881836,-1.0058677196502686,0.01976311206817627,0.003326857928186655,-0.0007045467500574887
1706236119229155390,0.1422881782054901,9.772039413452148,-1.0101714134216309,0.01582997851073742,0.0019249907927587628,-0.0007961132796481252
1706236119238165019,0.1280193477869034,9.771339416503906,-1.0013961791992188,0.012744653970003128,0.0006359810358844697,-1.1930947039218154e-05
1706236119248919260,0.14752179384231567,9.762576103210451,-1.012099862098694,0.01086745597422123,8.56658152770251e-05,0.0012510695960372686
1706236119258676075,0.14097560942173007,9.766629219055178,-1.0147598981857302,0.010536971502006054,0.0004695369570981711,0.002483551623299718
1706236119269339223,0.1439807415008545,9.764249801635742,-1.014569401741028,0.011852146126329899,0.001394554739817977,0.003113907529041171
1706236119278954538,0.14100499451160434,9.761916160583498,-1.009871482849121,0.014493172988295555,0.0022469195537269115,0.0027258223854005337
1706236119288095945,0.13410845398902893,9.761566162109375,-1.011973023414612,0.017675073817372322,0.0025544429663568735,0.0013938727788627148
1706236119300063871,0.1418808847665787,9.767659187316896,-1.0149059295654297,0.0203970056027174,0.0021431443747133017,-0.000358176592271775
1706236119308149242,0.13499557971954346,9.758180618286133,-1.0079156160354616,0.021896954625844955,0.0011877993820235133,-0.0019471083069220185
1706236119318567649,0.1293051987886429,9.764941215515138,-1.0139652490615847,0.021930770948529243,4.851707490161061e-05,-0.0029869996942579746
1706236119328652538,0.13304546475410461,9.755150794982912,-1.0184102058410645,0.020640186965465546,-0.0010070231510326266,-0.0033750918228179216
1706236119338605241,0.11808754503726959,9.762576103210451,-1.0093882083892822,0.018315723165869713,-0.001913284882903099,-0.003332496155053377
1706236119348779908,0.10981766879558563,9.768958091735842,-1.0174705982208252,0.015185568481683731,-0.0026653078384697437,-0.003209102898836136
1706236119358480612,0.12222047895193101,9.760891914367678,-1.0062960386276247,0.011291940696537495,-0.003107059746980667,-0.003185608424246311
1706236119369274112,0.12062669545412065,9.762257575988771,-1.0222387313842773,0.006821044720709324,-0.003039917442947626,-0.0032403944060206413
1706236119378345445,0.1193951815366745,9.774045944213867,-1.0050319433212282,0.0024618669413030148,-0.0024732141755521297,-0.00331604341045022
1706236119388002167,0.133733868598938,9.768335342407227,-1.0137977600097656,-0.000842888024635613,-0.0014961576089262962,-0.00336193828843534
1706236119398419130,0.14690859615802768,9.764942169189453,-1.0065954923629763,-0.0022384831681847572,-0.0001366701180813834,-0.003247902961447835
1706236119408213075,0.1266380995512009,9.758171081542969,-1.0034850835800173,-0.0011178789427503943,0.001379485591314733,-0.0027856258675456047
1706236119418054890,0.12673470377922058,9.75682258605957,-1.0079323053359988,0.0023596209939569235,0.0024617596063762903,-0.0018274602480232716
1706236119429098908,0.12447887659072876,9.756829261779787,-1.0081849098205566,0.00688153738155961,0.002453563502058387,-0.00039821784594096243
1706236119438913464,0.11672282218933105,9.760207176208498,-1.0132330656051638,0.010586990043520927,0.0011044276179745793,0.0011741968337446451
1706236119448057797,0.12050579488277435,9.75955104827881,-1.0113677978515625,0.012068419717252254,-0.0012125370558351278,0.002350183203816414
1706236119458193278,0.10230748355388641,9.761561393737795,-1.013390302658081,0.01083944458514452,-0.003703732741996646,0.0026797642931342125
1706236119468454593,0.1139679104089737,9.768321990966797,-1.0232810974121094,0.007214079145342112,-0.005548940505832434,0.001998664578422904
1706236119478154278,0.10485816746950151,9.763921737670898,-1.0126988887786865,0.0020255318377166986,-0.006176348775625229,0.0003810604102909565
1706236119488932408,0.11361661553382874,9.76562023162842,-1.0116764307022097,-0.0035824377555400133,-0.005431835073977709,-0.001855763723142445
1706236119499232241,0.1106393039226532,9.749756813049318,-1.0143744945526123,-0.008429438807070255,-0.0037261261604726315,-0.004080514889210463
1706236119513612186,0.11212831735610962,9.760562896728516,-1.0153675079345703,-0.011646844446659088,-0.001980298198759556,-0.005625281948596239
1706236119519792038,0.1137441471219063,9.762252807617188,-1.0115742683410645,-0.012921514920890331,-0.0011187037453055382,-0.006201751530170441
1706236119528626019,0.11087921261787415,9.763944625854492,-1.019724488258362,-0.012512708082795143,-0.0014018864603713155,-0.005962361581623554
1706236119540873427,0.09562467038631439,9.761249542236328,-1.0243399143218994,-0.01114725787192583,-0.002344401553273201,-0.00537544209510088
1706236119550110501,0.11599190533161163,9.772370338439943,-1.0188632011413574,-0.009839932434260845,-0.0032055028714239597,-0.005087351892143488
1706236119559302001,0.10531188547611237,9.763916969299318,-1.013105869293213,-0.009379381313920021,-0.003388424636796117,-0.005541463382542133
1706236119570245223,0.10661331564188005,9.75987434387207,-1.0113455057144167,-0.009868204593658447,-0.002674830611795187,-0.00656023807823658
1706236119579028167,0.102731890976429,9.764954566955568,-1.0210533142089844,-0.010952570475637913,-0.0013888420071452856,-0.007492359261959791
1706236119588667408,0.0953976958990097,9.756168365478516,-1.010514497756958,-0.012330545112490654,-0.00019534055900294334,-0.007824531756341457
1706236119598672056,0.09849226474761963,9.762230873107912,-1.0198894739151003,-0.013953670859336853,0.0003317485097795725,-0.007505188230425119
1706236119628200075,0.10043573379516602,9.750786781311037,-1.0192418098449707,-0.020823385566473007,-0.002067800145596266,-0.005605405196547508
1706236119648691001,0.10516339540481567,9.765636444091797,-1.0223697423934939,-0.024071866646409035,-0.003957241307944059,-0.005586555693298578
1706236119658885038,0.09558675438165666,9.761914253234865,-1.0199577808380127,-0.02404705248773098,-0.00477137416601181,-0.006173614878207445
1706236119669033186,0.08550187945365906,9.767328262329102,-1.0258425474166872,-0.0231738593429327,-0.005148033145815134,-0.0071905446238815784
1706236119678099056,0.0940154865384102,9.772359848022461,-1.0139855146408083,-0.02227110043168068,-0.00473624374717474,-0.008521254174411297
1706236119688116778,0.10130047798156738,9.76124382019043,-1.0169245004653933,-0.02215425856411457,-0.0034097624011337757,-0.00984046421945095
1706236119698134815,0.10281267762184143,9.766298294067383,-1.0128638744354248,-0.022896600887179375,-0.0014221837045624852,-0.010645454749464989
1706236119708414982,0.09329980611801147,9.76156520843506,-1.014890432357788,-0.023827675729990005,0.0005989801720716059,-0.010529226623475552
1706236119718547778,0.11088155210018158,9.762250900268555,-1.0129601955413818,-0.024235349148511887,0.0019787962082773447,-0.0094448272138834
1706236119728235760,0.09207414835691453,9.76192378997803,-1.0239298343658447,-0.02381414733827114,0.002337574027478695,-0.007756237871944904
1706236119738461945,0.08381149172782898,9.76362419128418,-1.021716594696045,-0.022785773500800133,0.0017088315216824412,-0.006155620329082012
1706236119748885908,0.09790209680795671,9.766624450683594,-1.0115993022918701,-0.021921662613749504,0.0004935474134981632,-0.00534695154055953
1706236119758586260,0.08377232402563096,9.768306732177734,-1.00669264793396,-0.022046707570552826,-0.0006991116679273546,-0.005476307589560747
1706236119769031445,0.08248469233512878,9.761244773864748,-1.0160560607910156,-0.023458072915673256,-0.0013268447946757078,-0.0059502022340893745
1706236119778948149,0.08895108103752136,9.766633987426758,-1.0131603479385378,-0.025964921340346336,-0.0012138539459556341,-0.006039598025381565
1706236119788596649,0.07732655107975006,9.762258529663086,-1.021073579788208,-0.029106102883815765,-0.0005982793518342078,-0.0055526262149214745
1706236119799224352,0.10204555839300157,9.770678520202638,-1.0170505046844482,-0.032224349677562714,0.0001443255750928074,-0.00487393606454134
1706236119808846704,0.10123272985219957,9.765626907348633,-1.0142203569412234,-0.034468669444322586,0.0007976863416843116,-0.0045251622796058655
1706236119818341112,0.10257028043270111,9.762928009033203,-1.0138458013534548,-0.034901026636362076,0.0013302937150001526,-0.004704739432781935
1706236119828061889,0.11087431013584137,9.774070739746094,-1.0136028528213503,-0.03296901285648346,0.0017451236490160227,-0.005182983353734016
1706236119838336575,0.11441022157669067,9.764949798583984,-1.0195056200027468,-0.02885373868048191,0.0020815881434828043,-0.005598906893283129
1706236119848322908,0.1048523709177971,9.759553909301758,-1.017672419548035,-0.023324262350797653,0.002402273006737232,-0.0058096894063055515
1706236119858075334,0.09884809702634813,9.776764869689943,-1.0169669389724734,-0.01757051609456539,0.002638167468830943,-0.005943023134022951
1706236119868676315,0.1099405437707901,9.762594223022461,-1.0101313591003418,-0.012984581291675568,0.002717506606131792,-0.006133340299129486
1706236119878385723,0.10284924507141113,9.759182929992678,-1.0094249248504639,-0.010532963089644909,0.0026949604507535696,-0.006257498171180487
1706236119888980371,0.09613201767206193,9.771682739257812,-1.0143584012985232,-0.010313598439097404,0.0025370316579937935,-0.006002274341881275
1706236119899381149,0.08348028361797333,9.760543823242188,-1.0141900777816775,-0.0119191724807024,0.0021527709905058146,-0.00522458553314209
1706236119908272778,0.07790634036064148,9.775419235229492,-1.0180459022521973,-0.015053683891892433,0.0016534996684640646,-0.004179258830845356
1706236119918280186,0.0921110436320305,9.770349502563477,-1.0107274055480957,-0.01956278458237648,0.0013622342376038432,-0.0033354891929775476
1706236119931798537,0.10010635107755662,9.766641616821289,-1.016538739204407,-0.024853592738509178,0.001611926476471126,-0.0030016344971954823
1706236119938712871,0.09429755061864854,9.769336700439453,-1.013481616973877,-0.029592394828796387,0.002451017964631319,-0.0031654350459575653
1706236119948510297,0.10855560004711151,9.764608383178711,-1.0109319686889648,-0.0323110856115818,0.0035436367616057396,-0.0036063718143850565
1706236119958224130,0.10532905906438829,9.770020484924318,-1.013172507286072,-0.032208386808633804,0.004425749648362398,-0.004028096795082092
1706236119969606463,0.09991782903671265,9.771682739257812,-1.003453254699707,-0.029429670423269272,0.0048355055041611195,-0.004133956506848335
1706236119978480945,0.10722784698009491,9.77205562591553,-1.0172197818756104,-0.02497788891196251,0.004872641060501337,-0.0037230364978313446
1706236119988577611,0.10656441003084184,9.760899543762209,-1.0190560817718506,-0.02025376446545124,0.004821181762963533,-0.002890672767534852
1706236120008671241,0.09722020477056505,9.77640151977539,-1.0093182325363161,-0.014193086884915829,0.004924502689391375,-0.0017285021021962166
1706236120018697297,0.10006663203239441,9.757184982299805,-1.0084989070892334,-0.01387972105294466,0.005278651602566242,-0.0016767419874668121
1706236120028390500,0.10667534917593004,9.778451919555664,-1.0136147737503054,-0.015222019515931606,0.00583890825510025,-0.0015857351245358586
1706236120038967834,0.104161374270916,9.77439594268799,-1.00813889503479,-0.017330525442957878,0.0063324891962111,-0.0012964459601789713
1706236120049103741,0.10272974520921709,9.76662826538086,-1.0116195678710938,-0.01911221630871296,0.006677171681076288,-0.0008944204309955239
1706236120058796630,0.09680090099573137,9.76829242706299,-1.0063042640686035,-0.01991702802479267,0.006934701930731535,-0.0005027347360737622
1706236120068415760,0.10918080806732178,9.76832389831543,-1.0129479169845583,-0.019786231219768524,0.006994664203375578,-0.00016610445163678378
1706236120078517741,0.10695506632328033,9.761531829833984,-1.0044273138046267,-0.01908119022846222,0.006658410187810659,0.00012099275772925466
1706236120088493482,0.10350920259952545,9.767292976379396,-1.0049120187759402,-0.018050748854875565,0.00582219660282135,0.0004156395443715155
1706236120103950982,0.11707604676485063,9.772384643554688,-1.0132813453674316,-0.01680697686970234,0.004581621382385492,0.0008254534332081676
1706236120108655093,0.11645755916833879,9.771018981933594,-1.0096603631973269,-0.015349356457591057,0.0033386920113116503,0.0013287238543853164
1706236120118071611,0.12272956967353821,9.760220527648928,-1.016229033470154,-0.013485117815434933,0.0025926553644239902,0.0016575625631958246
1706236120130508852,0.11673987656831743,9.762571334838867,-1.0073866844177246,-0.01100260391831398,0.002438811818137765,0.0015060630394145846
1706236120138292741,0.11528715491294861,9.768310546875,-1.0076563358306885,-0.00801736582070589,0.0024808712769299746,0.0008488403400406241
1706236120149101260,0.11863727122545244,9.767976760864258,-1.0066837072372439,-0.005062493029981852,0.00234482204541564,4.077357880305499e-05
1706236120160244074,0.11851581186056138,9.762244224548342,-1.0141838788986208,-0.0027631036937236786,0.0020279649179428816,-0.00046081928303465247
1706236120168887426,0.13779245316982272,9.767989158630373,-1.013916015625,-0.0013382615288719535,0.0016946933465078473,-0.0005220877355895936
1706236120178535260,0.12139120697975159,9.76155757904053,-1.010538697242737,-0.0003788220346905291,0.001421984750777483,-0.00041384377982467413
1706236120191834815,0.11981846392154694,9.767660140991211,-1.0174314975738525,0.000716630311217159,0.0011976876994594932,-0.000493548926897347
1706236120203744389,0.12239045649766923,9.761226654052734,-1.0087422132492068,0.0020427699200809,0.0009889033390209079,-0.0009278632933273911
1706236120209964482,0.12737780809402466,9.778796195983888,-1.019855260848999,0.0031997773330658674,0.0008288990939036012,-0.0016658848617225885
1706236120218688556,0.13116984069347384,9.7649621963501,-1.0175350904464724,0.0039277165196835995,0.0009202505461871624,-0.0025824415497481823
1706236120228558259,0.12131368368864061,9.760548591613771,-1.0080786943435671,0.004380681551992893,0.0014543955912813544,-0.0035864401143044233
1706236120248749315,0.11745437234640123,9.765939712524414,-0.9965150356292725,0.005308480467647314,0.0030342061072587967,-0.004523316863924265
1706236120258284500,0.13079752027988437,9.77169704437256,-1.006695032119751,0.0057096355594694614,0.0036126987542957067,-0.003237495431676507
1706236120269063908,0.11151859164237976,9.772370338439943,-1.0054932832717898,0.0058125643990933895,0.004091381095349789,-0.0005582845769822598
1706236120278346796,0.122685544192791,9.760544776916506,-1.0160359144210818,0.005403235554695129,0.004548074211925268,0.0026808332186192274
1706236120288557259,0.12269085645675659,9.756509780883789,-1.0079965591430664,0.0043725669384002686,0.004827344790101051,0.005226653069257736
1706236120300022111,0.130982980132103,9.758856773376467,-1.0037506818771365,0.002966640517115593,0.004460671450942755,0.006192992441356182
1706236120308678759,0.12722119688987732,9.76122570037842,-1.0156443119049072,0.0018337484216317534,0.0030525370966643095,0.005565520375967026
1706236120318557574,0.13989295065402987,9.7659387588501,-0.9991520047187806,0.0016748735215514898,0.0007748567149974406,0.0039978912100195885
1706236120328252056,0.1351090669631958,9.760207176208498,-1.011338233947754,0.0029028658755123615,-0.0016450835391879082,0.0023133784998208284
1706236120338624982,0.12961742281913757,9.767292022705078,-1.0020911693572998,0.00546426372602582,-0.0034080040641129017,0.0011843384709209204
1706236120348209963,0.14141227304935458,9.75784683227539,-1.0120766162872314,0.008775525726377964,-0.0040962654165923595,0.0009096645517274737
1706236120358992278,0.14018410444259644,9.755149841308594,-1.0051968097686768,0.0120509909465909,-0.0038512356113642454,0.001341116614639759
1706236120368482371,0.13541303575038913,9.762226104736328,-0.9997725486755371,0.014786986634135246,-0.0032660895958542824,0.0021134689450263977
1706236120378537852,0.14637935161590576,9.76663589477539,-1.0130033493041992,0.016829296946525574,-0.002910452429205179,0.0029589678160846233
1706236120388238741,0.13739128410816195,9.748746871948242,-1.0122114419937136,0.01823492906987667,-0.00292838248424232,0.003671780927106738
1706236120398460037,0.13892225921154025,9.767651557922365,-1.0043797492980957,0.01916489563882351,-0.0032254098914563656,0.003946003504097462
1706236120408579982,0.13776707649230957,9.75614643096924,-1.0073363780975342,0.01970953494310379,-0.003711570519953966,0.003623970551416278
1706236120418226426,0.13707202672958374,9.763257026672365,-1.0156735181808474,0.019846048206090927,-0.004226201679557562,0.002900583203881979
1706236120429108037,0.14211420714855197,9.770356178283693,-1.0166319608688357,0.01959030143916607,-0.004513616673648357,0.0019911951385438442
1706236120438338982,0.14767418801784518,9.762248039245607,-1.003803610801697,0.01915767230093479,-0.0042879944667220116,0.0009020702564157546
1706236120449119019,0.13068173825740817,9.746709823608398,-1.0023781061172488,0.01891854964196682,-0.0034841943997889757,-0.0002253622078569606
1706236120458779852,0.14961209893226624,9.7592248916626,-1.0176900625228884,0.019076040014624596,-0.002611232688650489,-0.0009339060052298009
1706236120469172907,0.1321311593055725,9.765264511108398,-1.0123919248580935,0.019514912739396095,-0.002412252826616168,-0.0009679339709691703
1706236120479135463,0.12767204642295837,9.765947341918945,-1.0099029541015625,0.01990729197859764,-0.003012185450643301,-0.000633561983704567
1706236120488829519,0.13719831407070163,9.759217262268068,-1.008413553237915,0.019769631326198578,-0.003802026156336069,-0.00037856900598853827
1706236120499136037,0.13784007728099826,9.750796318054201,-1.016174912452698,0.018780682235956192,-0.004212852101773024,-0.00035950040910393
1706236120518712574,0.13094472885131836,9.766960144042969,-1.0129806995391846,0.015766290947794914,-0.0046027544885873795,-0.0006804649601690471
1706236120528475963,0.14957892894744873,9.765979766845703,-1.0138903856277468,0.01496786717325449,-0.005134809296578169,-0.0007069438579492271
1706236120538832685,0.13979606330394748,9.7575159072876,-1.014334559440613,0.015061836689710617,-0.005465077701956034,-0.0006417748518288136
1706236120548962889,0.14225591719150546,9.763256072998047,-1.0085843801498415,0.016087934374809265,-0.005192673299461603,-0.0007199395913630724
1706236120558640833,0.14714388549327853,9.760883331298828,-1.000197410583496,0.017833810299634933,-0.004396595060825348,-0.0009823001455515623
1706236120568939593,0.14442704617977145,9.75515365600586,-1.006204962730408,0.019898559898138046,-0.003464578650891781,-0.001063052681274712
1706236120582033907,0.1415602117776871,9.75278949737549,-1.014757037162781,0.0218911562114954,-0.002869806019589305,-0.0005475440411828458
1706236120588483926,0.14269497990608215,9.767666816711428,-1.0135102272033691,0.023461580276489258,-0.0029864017851650715,0.0004554391198325902
1706236120598969926,0.1409156322479248,9.763596534729006,-1.0126681327819824,0.0243238378316164,-0.003728168085217476,0.0013082395307719707
1706236120608890722,0.14073748886585238,9.767295837402344,-1.011054277420044,0.024376878514885902,-0.004466669633984566,0.0014330013655126095
1706236120618918704,0.14396876096725464,9.772043228149414,-1.012239694595337,0.023758918046951294,-0.00448237918317318,0.0007490733987651765
1706236120628688907,0.14362764358520508,9.76258659362793,-1.0095764398574831,0.022813735529780388,-0.0034248882438987494,-0.0003897664719261229
1706236120648611407,0.14673501253128052,9.758218765258789,-1.011812448501587,0.021988356485962868,-0.001537070027552545,-0.001492377370595932
1706236120648677518,0.14668671786785129,9.765281677246094,-1.0106440782547,0.021669425070285797,0.00039644254138693213,-0.0021899701096117496
1706236120658623556,0.13705722987651828,9.763920783996584,-1.0061802864074707,0.021994134411215782,0.0015714927576482296,-0.0023394047748297453
1706236120670535648,0.13633866608142856,9.760919570922852,-1.0147715806961062,0.022675782442092896,0.0017083216225728393,-0.0019805498886853456
1706236120678319722,0.14335745573043823,9.758529663085938,-1.0151065587997439,0.02311319299042225,0.0010053429286926985,-0.0013400055468082428
1706236120690616093,0.13166008889675143,9.761216163635256,-1.0062346458435059,0.02284669317305088,-0.0002122294099535793,-0.0008000736124813557
1706236120699602648,0.13928146660327914,9.767611503601076,-1.0022619962692263,0.02181500568985939,-0.0015974340494722128,-0.0005600182339549065
1706236120709456055,0.13942362368106845,9.764258384704592,-1.0113688707351687,0.020261825993657112,-0.0027048897463828325,-0.0003906595811713487
1706236120719178630,0.14073094725608826,9.760560989379883,-1.0088424682617188,0.01864362135529518,-0.003133191727101803,2.560568282206077e-05
1706236120728928574,0.14639410376548767,9.767321586608888,-1.0142285823822021,0.017512457445263863,-0.0028176193591207266,0.0006506869103759527
1706236120738715537,0.14322081208229065,9.765287399291992,-1.0211679935455322,0.017303219065070152,-0.002007446251809597,0.0010813672561198473
1706236120748795315,0.14407603442668918,9.764273643493654,-1.016355633735657,0.01814202405512333,-0.0009981418261304498,0.0008009410812519491
1706236120758886037,0.15004132688045504,9.760921478271484,-1.0203943252563477,0.01979300007224083,-5.0226666644448414e-05,-0.0004981061210855842
1706236120769098074,0.14130836725234985,9.767993927001953,-1.0206921100616455,0.02181912213563919,0.0005891300970688462,-0.002690186956897378
1706236120778447741,0.1432846486568451,9.769032478332521,-1.0164300203323366,0.023738453164696693,0.0008383798995055258,-0.005297528579831123
1706236120788374537,0.14414283633232117,9.767640113830568,-1.0151395797729492,0.025090694427490234,0.0009085916099138558,-0.00769558921456337
1706236120798700352,0.14206603169441223,9.774381637573242,-1.0117418766021729,0.025605060160160065,0.001150909811258316,-0.00927352998405695
1706236120808392944,0.13924323022365573,9.770353317260742,-1.0155999660491943,0.025306537747383118,0.001830207067541778,-0.009637400507926941
1706236120818411185,0.14397165179252625,9.770705223083498,-1.011102080345154,0.024409787729382515,0.003003678284585476,-0.008797788061201572
1706236120828530259,0.15435062348842624,9.762923240661623,-1.006232738494873,0.02328847534954548,0.0044307769276201725,-0.007110768463462591
1706236120838436222,0.13018950819969177,9.759192466735842,-0.9986940622329712,0.022451462224125862,0.005564735271036625,-0.004941826220601797
1706236120848639778,0.157298818230629,9.77405643463135,-1.0124982595443728,0.02221561223268509,0.0058215223252773285,-0.002464525867253542
1706236120858496222,0.1402994990348816,9.764283180236818,-1.0141966342926025,0.022543884813785553,0.005074463319033384,6.777835369575769e-05
1706236120868530037,0.14738565683364868,9.77305793762207,-1.0098253488540652,0.02326950430870056,0.0038130837492644787,0.0020647624041885138
1706236120878589629,0.1518423855304718,9.76394271850586,-1.016421675682068,0.02421010099351406,0.0027225525118410587,0.002916581928730011
1706236120888320796,0.14903011918067932,9.773409843444826,-1.0121538639068604,0.025230495259165764,0.0022282067220658064,0.002440978307276964
1706236120898638796,0.13252335786819458,9.767305374145508,-1.0125354528427126,0.02622540295124054,0.0024015456438064575,0.0009403170552104712
1706236120908350296,0.1536647379398346,9.773399353027344,-1.0136387348175049,0.026899967342615128,0.0030944643076509237,-0.0009861408034339547
1706236120918395648,0.1434740126132965,9.771018981933594,-1.0078824758529665,0.02694430574774742,0.004086342640221119,-0.0026936421636492014
1706236120928456815,0.1472569704055786,9.774398803710938,-1.0075271129608154,0.02644798345863819,0.005183289758861065,-0.003681279718875885
1706236120938443981,0.15415233373641968,9.764274597167969,-1.0140920877456667,0.0258339773863554,0.006221267860382795,-0.0037022612523287535
1706236120948513981,0.14233887195587158,9.767322540283203,-1.0200140476226807,0.025538839399814606,0.006959338206797838,-0.0029456710908561945
1706236120958554944,0.1461882442235947,9.770348548889162,-1.0123388767242432,0.025742582976818085,0.007111488841474056,-0.002058699494227767
1706236120968972444,0.15125782787799838,9.772053718566896,-1.026515007019043,0.0262618288397789,0.006629081442952156,-0.0017614845419302583
1706236120978870592,0.1342371851205826,9.763598442077638,-1.0104814767837527,0.026756945997476578,0.005807536654174328,-0.0024277858901768923
1706236120988734926,0.14100778102874756,9.768335342407227,-1.0152041912078857,0.026867035776376724,0.00498147401958704,-0.0039048397447913885
1706236120998630018,0.13951487839221957,9.757186889648438,-1.0054310560226443,0.02623881958425045,0.00422824639827013,-0.005532076116651297
1706236121008243740,0.14125201106071472,9.765289306640625,-1.0098279714584353,0.024791955947875977,0.0033850325271487236,-0.0064566717483103275
1706236121018254222,0.1376968175172806,9.765613555908203,-1.0085721015930176,0.022862307727336884,0.00229853973723948,-0.0061247339472174644
1706236121028961222,0.15564602613449097,9.756175994873047,-1.0106701850891113,0.02102694660425186,0.001038630260154605,-0.0045854682102799416
1706236121038808963,0.1450771987438202,9.765954971313477,-1.004824757575989,0.019953768700361252,-0.00020376539032440633,-0.0023901218082755804
1706236121048886296,0.14702023565769198,9.769001007080078,-1.0146731138229372,0.02015860565006733,-0.0012445379979908466,-0.00021914771059527993
1706236121058916315,0.14636015892028809,9.769001960754396,-1.009209394454956,0.021610775962471962,-0.001799677382223308,0.001377294072881341
1706236121068926444,0.14291754364967346,9.756842613220217,-1.0065671205520632,0.023699330165982246,-0.001608275226317346,0.00209919479675591
1706236121079255315,0.1377643346786499,9.763251304626467,-1.006888270378113,0.0255811158567667,-0.0008327675168402493,0.00203963415697217
1706236121088966296,0.14286579191684726,9.765636444091797,-1.0118066072463991,0.02652246132493019,-3.0634717404609546e-05,0.0016094327438622713
1706236121098448907,0.13850128650665283,9.758175849914553,-0.9957395792007446,0.02618779055774212,0.00034230214077979326,0.0012407639296725392
1706236121109057815,0.14280353486537936,9.767653465270998,-1.0009528398513796,0.02477797120809555,0.0001876951428130269,0.0013136783381924033
1706236121119083574,0.14944444596767428,9.764274597167969,-1.007561206817627,0.022914310917258263,-0.00031337016844190657,0.0021331203170120716
1706236121129145963,0.14493784308433533,9.771336555480959,-1.0005974769592285,0.02140263095498085,-0.0007891292334534228,0.0036393562331795692
1706236121138948722,0.1302999705076218,9.77168941497803,-1.0140049457550049,0.02080560475587845,-0.0008028513402678072,0.005313527770340443
1706236121148813963,0.15274927020072937,9.764618873596193,-1.0123136043548584,0.021031877025961876,-7.63167190598324e-05,0.006443989463150501
1706236121158740666,0.140001118183136,9.773375511169435,-1.0069075822830202,0.021597515791654587,0.0013050844427198172,0.006456774193793535
1706236121168945537,0.14004842936992648,9.766968727111818,-1.0150940418243408,0.0221676304936409,0.0029461008962243795,0.005243297200649977
1706236121179170240,0.14821396768093112,9.7619104385376,-1.00313401222229,0.02259405143558979,0.004377479199320078,0.003241079393774271
1706236121188849555,0.1410011351108551,9.763934135437013,-1.0003124475479128,0.022825824096798897,0.005154203623533249,0.0012263527605682611
1706236121202573889,0.1298770308494568,9.77674961090088,-1.0067690610885622,0.022866487503051758,0.005027418024837971,4.093219467904419e-05
1706236121208998092,0.12836270034313205,9.76694965362549,-0.9955976009368896,0.022496473044157028,0.004261883441358805,0.00021210289560258389
1706236121219504333,0.13513663411140442,9.768324851989748,-1.0115000009536745,0.021271822974085808,0.0034954207949340343,0.0016751713119447231
1706236121228460426,0.14562694728374484,9.771028518676758,-1.0095274448394775,0.019113700836896896,0.0031844363547861576,0.003788168542087078
1706236121243709851,0.14006531238555908,9.761892318725586,-1.0124655961990359,0.016724755987524986,0.003358130808919668,0.0055600800551474094
1706236121248730240,0.13989181816577914,9.77372455596924,-1.0091407299041748,0.015154637396335602,0.0037626991979777813,0.0061436304822564125
1706236121269349148,0.13846883177757263,9.775062561035156,-1.0092711448669434,0.01650109514594078,0.004221733659505844,0.003694294486194849
1706236121278760833,0.13542070984840393,9.763252258300781,-1.0102576017379763,0.019003527238965034,0.004159506410360336,0.0020056506618857384
1706236121289114148,0.14048843085765841,9.762584686279297,-1.0153363943099978,0.02156803198158741,0.003991422709077597,0.0007929025450721383
1706236121301638574,0.13015064597129822,9.776742935180664,-1.0085844993591309,0.02310635708272457,0.0037117537576705217,6.783026765333489e-05
1706236121309246926,0.13166956603527072,9.760892868041992,-1.0098847150802615,0.023002246394753456,0.0033626765944063663,-0.0003820935671683401
1706236121318986907,0.1365230679512024,9.761560440063477,-1.0048180818557741,0.02126825973391533,0.00305439461953938,-0.0006409846828319132
1706236121329003555,0.13523826003074646,9.764592170715334,-1.0083367824554443,0.018498729914426804,0.0027069230563938618,-0.0006018234416842461
1706236121428810185,0.12738849222660067,9.762231826782227,-1.0061206817626953,0.013799292966723442,0.001059176865965128,8.529331535100937e-05
1706236121439149722,0.13311442732810974,9.775394439697266,-0.9990075826644897,0.013763625174760818,3.4153341402998194e-05,0.0008691214607097208
1706236121488558999,0.13008330762386325,9.767985343933107,-1.0111443996429443,0.018006134778261185,0.001000017742626369,0.0031606366392225027
1706236121499146981,0.12689931690692904,9.766292572021484,-1.0087864398956299,0.01811123453080654,0.0017421259544789791,0.002996023977175355
1706236121508543240,0.13121354579925537,9.759894371032717,-1.0151978731155398,0.016979696229100227,0.0022309545893222094,0.0028293842915445566
1706236121518673185,0.13218142092227939,9.759873390197756,-1.0102908611297607,0.014834729954600334,0.002338669029995799,0.002444752724841237
1706236121528914722,0.12984955310821533,9.761222839355469,-1.0098685026168825,0.012353832833468914,0.0018597005400806665,0.0016726810717955232
1706236121549121777,0.1368338167667389,9.775078773498537,-1.0159716606140137,0.009273353032767773,-0.0007497493643313646,-0.0005555168027058244
1706236121559055074,0.1376694142818451,9.762930870056154,-1.0163092613220215,0.009493084624409676,-0.0019808600191026926,-0.0016961831133812666
1706236121569130518,0.1401595324277878,9.760556221008303,-1.0126409530639648,0.010876109823584557,-0.002373721217736602,-0.002821482950821519
1706236121579210666,0.13576738536357882,9.771322250366211,-1.0026477575302126,0.013013482093811035,-0.0018618289614096284,-0.0038001120556145906
1706236121588934648,0.12984615564346313,9.762910842895508,-1.0139496326446533,0.01527760922908783,-0.000819318403955549,-0.004267587326467037
1706236121599647907,0.1409556716680527,9.758862495422365,-1.007261037826538,0.016978366300463676,0.00030811448232270777,-0.003911221399903297
1706236121609776740,0.12928037345409396,9.76966953277588,-1.0173264741897585,0.01767815090715885,0.0011075502261519432,-0.0028424353804439306
1706236121618618629,0.13213907182216647,9.760247230529787,-1.0201154947280886,0.017362777143716812,0.0013320670695975423,-0.001628184225410223
1706236121639007592,0.13549849390983582,9.769326210021974,-1.017109274864197,0.014633554965257645,0.00013465476513374597,-0.0013313201488927007
1706236121649125425,0.12537385523319247,9.758509635925295,-1.0020743608474734,0.012891972437500954,-0.0010693813674151897,-0.0024256152100861073
1706236121658817351,0.13275432586669922,9.765261650085451,-1.006610631942749,0.011379875242710114,-0.0022501007188111544,-0.0035240824799984694
1706236121669041962,0.1316436231136322,9.766648292541506,-1.0086402893066406,0.01029556430876255,-0.0029922896064817905,-0.0038024287205189466
1706236121688419425,0.14204350113868713,9.764580726623537,-1.0016276836395264,0.00964486412703991,-0.0024017835967242718,-0.0013465281808748841
1706236121698479685,0.12757623195648193,9.75075912475586,-1.013949751853943,0.010100221261382103,-0.001373095205053687,0.0003295861533842981
1706236121708369981,0.1350492537021637,9.768004417419435,-1.0117123126983643,0.010996252298355103,-0.0005654141423292458,0.0015797533560544252
1706236121718329055,0.1423381716012955,9.762588500976562,-1.0102299451828005,0.012101057916879654,-0.00044422768405638635,0.0021011698991060257
1706236121729549573,0.13241787254810336,9.76832389831543,-1.0142132043838503,0.013229956850409508,-0.0009065063786692917,0.00180992076639086
1706236121747724536,0.13595311343669894,9.771373748779297,-1.0086623430252077,0.014319094829261303,-0.001388496719300747,0.0008942413260228932
1706236121748923499,0.1466603130102158,9.770697593688967,-1.008157730102539,0.015294299460947514,-0.0012841097777709365,-0.000252209953032434
1706236121758939629,0.1334923505783081,9.76224136352539,-1.0050605535507204,0.01615755259990692,-0.000312713353196159,-0.001139102503657341
1706236121768787777,0.1304520815610886,9.762230873107912,-1.0058354139328005,0.016945092007517815,0.0012294737389311194,-0.0013403561897575855
1706236121779408629,0.14227375388145447,9.764623641967773,-1.014230728149414,0.017478929832577705,0.0026045467238873243,-0.000731799693312496
1706236121788328055,0.1370130479335785,9.7598876953125,-1.0169973373413086,0.01756151020526886,0.003155712503939867,0.00031974585726857185
1706236121798520203,0.14276699721813205,9.767331123352053,-1.0213539600372314,0.01733696088194847,0.0026970573235303164,0.0010397061705589294
1706236121809163055,0.12745040655136108,9.752805709838867,-1.0164898633956911,0.01712757907807827,0.0014787439722567797,0.0006854978855699301
1706236121829121333,0.13254931569099426,9.764613151550295,-1.017597556114197,0.016665296629071236,-0.001738092047162354,-0.003236246295273304
1706236121839327259,0.1332087516784668,9.770003318786623,-1.015696167945862,0.015909096226096153,-0.002982325153425336,-0.005385109223425388
1706236121849098462,0.12999922037124634,9.76157855987549,-1.013442635536194,0.014788517728447914,-0.0033966696355491877,-0.006772169843316078
1706236121859186018,0.13464619219303134,9.772038459777834,-1.0032970905303955,0.01355093065649271,-0.002802771981805563,-0.007178621366620064
1706236121880355592,0.1395380198955536,9.75653076171875,-1.0076373815536501,0.012028544209897518,0.00010285773896612227,-0.0048785642720758915
1706236121889274296,0.13652658462524414,9.779796600341797,-1.0108770132064822,0.01242650393396616,0.0011696340516209602,-0.002588052535429597
1706236121908370740,0.13899688422679904,9.75953483581543,-1.0041515827178955,0.015413920395076275,0.001432154793292284,0.0014066941803321242
1706236121918582018,0.14229562878608704,9.76192378997803,-1.011430859565735,0.01718578115105629,0.0010993090691044927,0.0022982077207416296
1706236121928259425,0.1370121389627457,9.77337646484375,-1.0085757970809939,0.018666787073016167,0.0005156144616194069,0.002499903552234173
1706236121938896499,0.14269864559173584,9.764595031738281,-1.004579782485962,0.019683390855789185,-0.00010326853953301907,0.00226602447219193
1706236121948993351,0.14942583441734314,9.773736000061037,-1.0101397037506104,0.02025393210351467,-0.0002994932874571532,0.0018875751411542296
1706236121958693944,0.1342184841632843,9.772708892822266,-1.0108435153961182,0.020618388429284096,0.0002641890896484256,0.001602657837793231
1706236121970017295,0.14644075930118564,9.759230613708498,-1.0049259662628174,0.02100089006125927,0.0015761052491143346,0.0014637268614023924
1706236121979153851,0.12562362849712375,9.760203361511232,-1.0064953565597536,0.021327609196305275,0.0031382665038108826,0.0014367460971698165
1706236121989225221,0.1357030123472214,9.766985893249513,-1.009324908256531,0.021233832463622093,0.004120962228626013,0.0015516695566475391
1706236121999390758,0.15172743797302246,9.771372795104982,-1.0122439861297607,0.020422453060746193,0.004027815535664558,0.001789962057955563
1706236122008695888,0.12563389539718628,9.7713623046875,-1.0103820562362673,0.019122136756777763,0.003169567557051778,0.0019552556332200766
1706236122018773351,0.14115330576896667,9.759219169616701,-1.0084396600723269,0.017887672409415245,0.002298953477293253,0.0018204075749963522
1706236122028483314,0.1303849369287491,9.774743080139162,-1.0151948928833008,0.016983434557914734,0.0018972574034705758,0.0013369879452511668
1706236122038764203,0.12864528596401217,9.755505561828615,-1.013404369354248,0.016284804791212082,0.0019485412631183863,0.0005895866197533906
1706236122048827425,0.1318785548210144,9.773720741271974,-1.002312779426575,0.015507420524954796,0.00217380840331316,-0.0002969650668092072
1706236122058616407,0.13330213725566867,9.76121711730957,-1.006239414215088,0.01444564014673233,0.002303712535649538,-0.0010268246987834573
1706236122070013166,0.13395103812217712,9.76729965209961,-1.0064678192138672,0.013199880719184875,0.0022385879419744015,-0.0011562968138605356
1706236122079124332,0.13734169304370883,9.765623092651367,-1.0112222433090212,0.012140103615820408,0.0020177036058157682,-0.000487491866806522
1706236122099399184,0.13268530368804932,9.772370338439943,-1.0067238807678223,0.011938230134546757,0.0014134930679574609,0.001874107401818037
1706236122109301332,0.13914044201374057,9.765949249267578,-1.00517475605011,0.01282554492354393,0.0012439588317647576,0.002709056483581662
1706236122118281462,0.13183517754077914,9.758862495422365,-1.0077595710754395,0.013956327922642231,0.001321815769188106,0.0031599935609847307
1706236122129074851,0.13691197335720065,9.769975662231445,-0.9944503903388978,0.014962251298129559,0.0015425855526700616,0.003399419132620096
1706236122138709740,0.1361204981803894,9.77236080169678,-1.0065460205078125,0.015602711588144302,0.0017075719079002738,0.003736203070729971
1706236122149009184,0.13428598642349243,9.76693630218506,-1.0040576457977295,0.015831930562853813,0.0018753372132778168,0.0044207582250237465
1706236122158810684,0.129267230629921,9.77170181274414,-1.01485812664032,0.015722274780273438,0.002276950515806675,0.005321677774190903
1706236122169200388,0.13173396885395053,9.768321990966797,-1.0042946338653564,0.015290189534425735,0.0029912882018834352,0.0059280614368617535
1706236122179427999,0.12196695804595947,9.76830577850342,-1.0030186176300049,0.0144578255712986,0.0038800842594355345,0.005826085805892944
1706236122201114592,0.135846421122551,9.761892318725586,-1.0059354305267334,0.011437059380114079,0.005550454370677471,0.00444713793694973
1706236122209187666,0.12391108274459839,9.769638061523438,-1.0015027523040771,0.009754621423780918,0.006240410730242729,0.004200040828436613
