Timestamp,IMU_Raw_x,IMU_Raw_y,IMU_Raw_z,IMU_Linear_Acc_X,IMU_Linear_Acc_Y,IMU_Linear_Acc_Z
1706236327227197229,0.10871193557977678,9.767143249511719,-0.9826370477676392,-0.003800597507506609,-0.005245322361588478,-0.002655587624758482
1706236327237243673,0.10180261731147766,9.761423110961914,-0.9953715801239014,-0.004984073806554079,-0.006200431380420923,-0.0025038712192326784
1706236327248745562,0.11564353108406067,9.771569252014162,-0.984065055847168,-0.006648291368037462,-0.00640004500746727,-0.0028197632636874914
1706236327257442395,0.10947439819574357,9.763463973999023,-0.9939273595809937,-0.00849309004843235,-0.006129216868430376,-0.00385904498398304
1706236327287522821,0.09363533556461334,9.760408401489258,-0.9796048402786255,-0.01140380185097456,-0.004734364338219166,-0.008754384703934193
1706236327296859136,0.1062133088707924,9.767528533935547,-0.9797577857971191,-0.012042319402098656,-0.004253379534929991,-0.009082215838134289
1706236327307223210,0.10976039618253709,9.77191162109375,-0.9911413192749023,-0.013051256537437439,-0.003941180184483528,-0.008138624019920826
1706236327316934247,0.10759882628917694,9.768851280212404,-0.9821065664291382,-0.014156182296574116,-0.003862176788970828,-0.006375583820044994
1706236327326975451,0.09931468963623047,9.769201278686523,-0.9863162636756898,-0.014814657159149647,-0.003842317033559084,-0.004630495328456163
1706236327337177673,0.10148683935403825,9.768180847167969,-0.9901773333549501,-0.014845403842628002,-0.0037067553494125605,-0.0035772898700088263
1706236327348686432,0.09957486391067505,9.773252487182617,-0.9986231327056885,-0.01460252981632948,-0.003429676638916135,-0.0035548920277506113
1706236327357939488,0.09341227263212205,9.775958061218263,-0.9950649142265321,-0.014617360197007656,-0.003007307881489396,-0.004724025726318359
1706236327367731821,0.09853380918502808,9.764811515808107,-0.9962359666824341,-0.015271157957613468,-0.002381168073043227,-0.007038622163236141
1706236327377166747,0.10190929472446442,9.772921562194826,-0.9954899549484253,-0.016613794490695,-0.0016127661801874638,-0.010089064948260784
1706236327387021803,0.11005381494760515,9.766846656799318,-1.0027329921722412,-0.01821892522275448,-0.0009661446674726903,-0.013224946334958076
1706236327397063451,0.09835705906152727,9.76852798461914,-0.9924238324165345,-0.01933467388153076,-0.0007072259322740138,-0.015892695635557175
1706236327408378784,0.0968153178691864,9.770249366760256,-1.0023607015609743,-0.01946527510881424,-0.0009292750619351864,-0.01779097132384777
1706236327417774488,0.11140205711126329,9.758748054504396,-0.9966166615486146,-0.018758710473775864,-0.0015682762023061514,-0.018853336572647095
1706236327426840858,0.11024023592472076,9.772261619567873,-1.002939820289612,-0.017613423988223076,-0.0025204557459801435,-0.019247321411967278
1706236327437168340,0.10770253092050554,9.75908946990967,-1.0026512145996094,-0.016161926090717316,-0.003675078274682164,-0.01932111568748951
1706236327450237247,0.1028827428817749,9.758076667785646,-0.9931139945983887,-0.014434906654059887,-0.004921515006572008,-0.01941758207976818
1706236327456925895,0.10300870984792711,9.758074760437013,-1.000566005706787,-0.012743868865072727,-0.00628321897238493,-0.019629720598459244
1706236327466935988,0.09722042828798295,9.761777877807617,-0.9941630959510804,-0.011636578477919102,-0.00786535907536745,-0.01977495476603508
1706236327477065877,0.10017175227403642,9.768559455871584,-1.0014166831970215,-0.011575499549508095,-0.009540483355522156,-0.019657818600535393
1706236327489479284,0.09962926805019379,9.766199111938477,-0.9948369264602661,-0.01266719400882721,-0.010829497128725052,-0.019270537421107292
1706236327497339173,0.09979681670665741,9.768572807312013,-1.0074032545089724,-0.014579679816961288,-0.011187431402504444,-0.01879335381090641
1706236327507417803,0.10872364789247514,9.763808250427248,-1.005491018295288,-0.016668612137436867,-0.010419804602861404,-0.01855996809899807
1706236327517072877,0.10408386588096619,9.758787155151367,-1.0016037225723269,-0.018197214230895042,-0.008878531865775585,-0.018940767273306847
1706236327539799469,0.09847432374954224,9.766883850097656,-1.0131903886795046,-0.01865554414689541,-0.007300038821995258,-0.020088711753487587
1706236327539888451,0.11242392659187317,9.771594047546388,-1.0039383172988894,-0.01805134490132332,-0.006296473555266857,-0.021861044690012932
1706236327547964543,0.10092465579509735,9.765510559082031,-1.0021659135818484,-0.016774987801909447,-0.0059134033508598804,-0.023913685232400894
1706236327557788395,0.10987520217895508,9.763842582702638,-1.010285258293152,-0.015251276083290577,-0.005809051916003227,-0.025757625699043274
1706236327567185173,0.10997708886861803,9.76384162902832,-1.010972499847412,-0.013788711279630661,-0.005763891153037548,-0.027017246931791306
1706236327577056266,0.1148267909884453,9.768228530883789,-1.0073127746582031,-0.012486238032579422,-0.0058041950687766075,-0.027719618752598763
1706236327596116469,0.10789099335670471,9.769218444824219,-1.0056936740875244,-0.011236206628382206,-0.005938052199780941,-0.028118859976530075
1706236327597883636,0.10808548331260681,9.767887115478516,-1.010310411453247,-0.009978524409234524,-0.00600229250267148,-0.028360074386000633
1706236327607497506,0.10293198376893999,9.7634973526001,-1.002707362174988,-0.008919160813093185,-0.005829299334436655,-0.028450770303606987
1706236327618029265,0.09405795484781267,9.772976875305178,-1.0068427324295046,-0.008492019958794117,-0.005441608838737011,-0.028354933485388756
1706236327628037654,0.10956349968910217,9.76858139038086,-1.0022988319396973,-0.009114375337958336,-0.004952203948050737,-0.028016651049256325
1706236327638482803,0.10550905764102936,9.7594690322876,-1.0118255615234375,-0.01077156513929367,-0.004440696444362402,-0.027440838515758514
1706236327649541840,0.10324232280254364,9.773287773132326,-0.998967170715332,-0.012842649593949318,-0.004059340804815292,-0.02677455171942711
1706236327657281728,0.11483336240053178,9.772624015808107,-1.0041147470474245,-0.014500580728054047,-0.003935215063393116,-0.026174116879701614
1706236327669064654,0.10840015113353729,9.764166831970217,-0.9984152317047119,-0.01514418050646782,-0.003926446195691824,-0.02561081014573574
1706236327677191210,0.11215700954198839,9.762845039367678,-1.0081102848052979,-0.014540349133312702,-0.0038526239804923534,-0.02495424821972847
1706236327687004117,0.10442866384983063,9.774310111999513,-0.9937597513198853,-0.01291902456432581,-0.0037996801547706127,-0.02418377250432968
1706236327697967191,0.10869796574115753,9.768573760986328,-0.9896715879440308,-0.010930674150586128,-0.003870155895128846,-0.023294638842344284
1706236327706973414,0.11572235822677612,9.755068778991701,-0.9864012002944946,-0.009279510006308556,-0.003993733320385218,-0.0220333281904459
1706236327718213636,0.10725481808185577,9.762822151184084,-0.9849826693534852,-0.00828399509191513,-0.004255848005414009,-0.019994067028164864
1706236327727919562,0.11634843796491624,9.763512611389162,-0.9921398758888246,-0.007823744788765907,-0.004968575201928616,-0.01705167070031166
1706236327737362469,0.119920052587986,9.764541625976562,-1.0039803981781006,-0.007564174011349678,-0.00621355464681983,-0.013706140220165253
1706236327748094914,0.10454526543617249,9.760813713073732,-0.9995304942131044,-0.0071451300755143166,-0.007661269046366215,-0.011044183745980263
1706236327757207154,0.10553298890590668,9.769238471984865,-0.9965651631355287,-0.006507884711027145,-0.008864132687449455,-0.010130864568054676
1706236327767200525,0.10785675793886186,9.77296257019043,-1.0022964477539062,-0.006082041189074516,-0.009448004886507988,-0.011254047974944115
1706236327777380191,0.10414823144674303,9.766887664794922,-0.9899837970733643,-0.00637818593531847,-0.009122206829488277,-0.013784881681203842
1706236327787524099,0.10815658420324327,9.767217636108398,-0.9877125024795532,-0.007511816918849945,-0.007859748788177967,-0.016556888818740845
1706236327797695877,0.10611392557621002,9.769571304321289,-0.9901733994483949,-0.009173222817480564,-0.0060582393780350685,-0.018332527950406075
1706236327807795580,0.12036245316267015,9.762820243835451,-0.9865341782569886,-0.010793870314955711,-0.004334702156484127,-0.01833849400281906
1706236327822154951,0.10613923519849779,9.77126693725586,-0.9887062311172485,-0.01172297727316618,-0.0031933451537042856,-0.016601385548710823
1706236327827858543,0.11570507287979126,9.769570350646974,-0.9779590964317323,-0.011550121940672398,-0.0028072905261069536,-0.013746028766036034
1706236327837516969,0.10166623443365098,9.766545295715334,-0.9913607239723207,-0.010418255813419819,-0.0029751842375844717,-0.0105352234095335
1706236327848317784,0.10378812253475189,9.769244194030763,-0.9889782667160034,-0.00900200568139553,-0.003349578008055687,-0.0076616499572992325
1706236327858802747,0.11061738431453705,9.773314476013185,-0.9909225702285767,-0.00812540389597416,-0.003662747796624899,-0.005750913172960281
1706236327867124451,0.10009212791919708,9.77330207824707,-0.9888740181922914,-0.00824645534157753,-0.00369782792404294,-0.005186968017369509
1706236327877604154,0.10186280310153961,9.764522552490234,-0.9844851493835449,-0.009303821250796318,-0.003306967904791236,-0.005857348907738924
1706236327887102932,0.09672112762928009,9.776983261108398,-0.9847090840339662,-0.011023284867405891,-0.002577880397439003,-0.007157163228839636
1706236327897122821,0.09882955253124237,9.774988174438477,-0.9888743162155151,-0.01315072551369667,-0.001736961305141449,-0.00831632036715746
1706236327907230228,0.11546986550092699,9.769571304321289,-0.9848061203956605,-0.015349864959716797,-0.0008861187961883843,-0.008840559050440788
1706236327917853617,0.10557743906974792,9.765177726745607,-0.9779128432273866,-0.017009470611810684,-0.00010558310896158218,-0.008637681603431702
1706236327926939525,0.10030971467494965,9.763487815856935,-0.9884801506996156,-0.017493445426225662,0.0002972194633912295,-0.00780450040474534
1706236327937399747,0.10215546935796739,9.77225112915039,-0.978350341320038,-0.016768449917435646,-4.636874655261636e-05,-0.00653252424672246
1706236327947683339,0.10454288125038147,9.750648498535156,-0.9780853986740112,-0.015484871342778206,-0.0012237555347383022,-0.005090809892863035
1706236327957335358,0.09905374795198442,9.75672721862793,-0.9796660542488099,-0.014396860264241695,-0.0031276559457182884,-0.0036572343669831753
1706236327967677580,0.10429438948631287,9.763480186462404,-0.9769932627677919,-0.013935009017586708,-0.005666833836585283,-0.002276521874591708
1706236327977806765,0.1103590577840805,9.775988578796388,-0.9809518456459047,-0.01411391980946064,-0.008463195525109768,-0.0009992894483730197
1706236327986857654,0.11160662770271301,9.767889022827148,-0.9867740869522095,-0.01451925840228796,-0.01059008203446865,1.7634754840401e-05
1706236327997043710,0.10724654793739319,9.767545700073242,-0.9829973578453065,-0.014529251493513584,-0.011116496287286282,0.0004945494001731277
1706236328009344858,0.11159291863441467,9.773622512817383,-0.9799675345420839,-0.013774956576526165,-0.009853489696979523,0.00021526063210330904
1706236328127296561,0.09847645461559296,9.766851425170898,-0.9848488569259644,-0.01877376064658165,-0.0033586604986339808,0.006831811275333166
1706236328167252969,0.09834190458059312,9.770547866821289,-0.9692857861518861,-0.019023273140192032,0.0029861030634492636,0.0034225971903651953
1706236328177202154,0.09493818879127502,9.761771202087404,-0.9678807854652406,-0.019789449870586395,0.0010569948935881257,0.00448019290342927
1706236328217716895,0.0914735347032547,9.779703140258789,-0.9673135280609131,-0.02310643531382084,-0.006798804737627506,0.00929554458707571
1706236328257531561,0.10068708658218384,9.773978233337404,-0.9765095114707948,-0.025401169434189796,0.0013616946525871754,0.007615304086357355
1706236328317330358,0.09523145109415056,9.773628234863281,-0.9704412221908569,-0.017318163067102432,-0.004614359699189663,0.0016248745378106833
1706236328327447876,0.09436903893947601,9.777354240417482,-0.9740607738494873,-0.014954591169953346,-0.005346118472516537,0.0021903514862060547
1706236328337422172,0.08993639796972276,9.785120010375977,-0.9695814847946167,-0.013967721723020077,-0.005003088619560003,0.0035544265992939472
1706236328347930191,0.1044447645545006,9.77330207824707,-0.9762704372406006,-0.01481856033205986,-0.0033957557752728462,0.0052591427229344845
1706236328357358210,0.09120924770832062,9.772940635681154,-0.9726208448410034,-0.01712138205766678,-0.0007151969475671649,0.006781395524740219
1706236328367480469,0.09872789680957794,9.758790969848633,-0.9768657684326172,-0.019900059327483177,0.0021664854139089584,0.007701689377427101
1706236328377188895,0.09638250619173051,9.768932342529297,-0.9821764230728149,-0.02222849428653717,0.003997629974037409,0.007792804390192032
1706236328387733969,0.1020296961069107,9.771621704101562,-0.9751576781272889,-0.023570993915200233,0.003929393365979195,0.00701185455545783
1706236328397774654,0.09584204852581024,9.765523910522461,-0.9780343770980835,-0.02377069741487503,0.002108624903485179,0.0055394405499100685
1706236328407837413,0.10076289623975755,9.770264625549318,-0.9796505570411683,-0.023013608530163765,-0.0005460496176965535,0.003798192599788308
1706236328419290191,0.08804852515459062,9.759124755859375,-0.9692748785018921,-0.021784979850053787,-0.0030761270318180323,0.002284139394760132
1706236328427803950,0.08700641244649888,9.769227027893068,-0.9695159196853638,-0.020784785971045494,-0.004969513043761253,0.0014498544624075294
1706236328437841876,0.09752209484577179,9.762832641601562,-0.9772382974624634,-0.02069425955414772,-0.006156255956739187,0.001629335107281804
1706236328450110395,0.10134251415729523,9.764179229736328,-0.9780251383781434,-0.02167067863047123,-0.006774516310542822,0.002747229067608714
1706236328457901580,0.09541371464729309,9.764188766479492,-0.9816179275512695,-0.023101087659597397,-0.007034041918814182,0.004173942841589451
1706236328466922450,0.08962047100067139,9.762143135070803,-0.9749739170074463,-0.024156853556632996,-0.007160544395446777,0.005103147588670254
1706236328477003284,0.08568485826253892,9.771614074707031,-0.9856178164482118,-0.024573253467679024,-0.007287811487913132,0.00506930984556675
1706236328487931172,0.0931251421570778,9.762511253356935,-0.9767317175865174,-0.024746252223849297,-0.007368194404989481,0.004090858157724142
1706236328497215339,0.08269988745450975,9.768562316894531,-0.9682933688163758,-0.02519911900162697,-0.0072607072070240974,0.002578334417194128
1706236328507173561,0.09370002895593645,9.767890930175781,-0.9783461689949037,-0.026149844750761986,-0.0069075943902134895,0.0012469269568100572
1706236328522120209,0.08185812830924988,9.77194595336914,-0.9750634431838989,-0.027481144294142723,-0.006328751798719168,0.0007527319248765707
1706236328527874246,0.09161581099033356,9.758791923522951,-0.994570553302765,-0.0289092268794775,-0.005577637813985348,0.0011346852406859398
1706236328537897728,0.08531959354877472,9.769914627075195,-0.9844059944152832,-0.030153194442391396,-0.0048515889793634415,0.0016768568893894553
1706236328548526154,0.07116781175136566,9.76080322265625,-0.979103684425354,-0.031104926019906998,-0.004460019059479237,0.0014778974000364542
1706236328557045487,0.08286075294017792,9.76722526550293,-0.9767694473266602,-0.032005999237298965,-0.004585708025842905,0.00029452299349941313
1706236328567376283,0.0894899070262909,9.754739761352539,-0.9761195778846742,-0.03320961818099022,-0.005213488359004259,-0.001245167339220643
1706236328577505395,0.10199614614248277,9.781061172485352,-0.9714878201484681,-0.03452395275235176,-0.006183478515595198,-0.0022127856500446796
1706236328587157191,0.10386558622121812,9.767895698547365,-0.9810990691184999,-0.035025496035814285,-0.007072152569890022,-0.0020210787188261747
1706236328597013450,0.10386436432600023,9.768607139587404,-0.998515546321869,-0.03369072452187538,-0.00727055873721838,-0.0008415086776949465
1706236328607048024,0.10049885511398315,9.771635055541992,-0.9770623445510864,-0.030216872692108154,-0.006494738627225161,0.00035959630622528493
1706236328617365228,0.094738207757473,9.765876770019531,-0.9836581349372865,-0.02535322681069374,-0.005028640851378441,0.0005745224771089852
1706236328627411395,0.0930105969309807,9.780405998229982,-0.9834780097007753,-0.020573414862155914,-0.0033958402927964926,-0.0003753075434360653
1706236328638033469,0.0835646241903305,9.77668571472168,-0.9841969013214111,-0.017398973926901817,-0.001906412304379046,-0.001938489032909274
1706236328648913339,0.08837318420410156,9.77027225494385,-0.9852731823921205,-0.016795426607131958,-0.0005332857253961265,-0.0034805946052074432
1706236328669150932,0.08605944365262987,9.774329185485842,-0.9858285188674927,-0.018834101036190987,0.0007618959061801434,-0.004632077645510435
1706236328670095895,0.08897225558757782,9.769265174865724,-0.9879262447357178,-0.022691061720252037,0.0017848566640168428,-0.005327765829861164
1706236328678194987,0.08926717936992645,9.773291587829592,-0.9827046394348145,-0.027033111080527306,0.0022782653104513884,-0.005700790323317051
1706236328687902339,0.10191210359334947,9.768255233764648,-0.9873455166816713,-0.030530346557497978,0.0021431376226246357,-0.00589858740568161
1706236328697944765,0.10048573464155199,9.765220642089844,-0.982909083366394,-0.03216472268104553,0.0014439703663811088,-0.005982218775898218
1706236328707122617,0.10346406698226929,9.763182640075685,-0.9803118109703065,-0.03142891451716423,0.0002677620796021074,-0.005931292660534382
1706236328717286024,0.10057369619607927,9.770623207092287,-0.9787519574165345,-0.02853061445057392,-0.0013054186711087823,-0.0056341164745390415
1706236328733075228,0.08596193045377733,9.765544891357422,-0.9794415235519409,-0.024440685287117958,-0.0030461905989795923,-0.004933758173137903
1706236328744141006,0.10107086598873138,9.768583297729492,-0.978525459766388,-0.02061605453491211,-0.004562079906463623,-0.0037847443018108606
1706236328751755746,0.09525267779827118,9.765860557556154,-0.9718386530876161,-0.018299592658877373,-0.005532403010874987,-0.0023062743712216616
1706236328757699654,0.10055392235517503,9.763529777526857,-0.9852735400199891,-0.01783570647239685,-0.005902934819459915,-0.0006939087761566043
1706236328774733931,0.0949191004037857,9.758458137512209,-0.9785122871398926,-0.018701672554016113,-0.00592229375615716,0.0007673109066672623
1706236328778548654,0.10556619614362718,9.763544082641602,-0.9889785051345825,-0.02004389464855194,-0.006028761155903339,0.0016672360943630338
1706236328791374635,0.0976351648569107,9.765909194946289,-0.9912522435188295,-0.021086959168314934,-0.006540571339428425,0.001597619615495205
1706236328797315876,0.09134596586227417,9.769939422607422,-0.9852176308631898,-0.021411214023828506,-0.007354747038334608,0.00033715961035341024
1706236328808071783,0.09618339687585832,9.76215934753418,-0.9758604764938354,-0.021168554201722145,-0.00802590698003769,-0.0018866810714825988
1706236328818371672,0.1072523444890976,9.762866020202638,-0.9917175173759462,-0.020828809589147568,-0.008211962878704071,-0.004297083243727684
1706236328829040431,0.09342847019433977,9.766211509704592,-0.9809475541114808,-0.020604511722922325,-0.00796879269182682,-0.006056644953787327
1706236328839320283,0.10772943496704102,9.765551567077638,-0.9727630019187928,-0.020356880500912666,-0.007566217333078384,-0.0067595308646559715
1706236328848883339,0.10844212770462036,9.766909599304201,-0.9829168319702148,-0.01986008509993553,-0.007178708910942078,-0.006319042760878801
1706236328857987802,0.09450913965702057,9.76487922668457,-0.9732849001884462,-0.0189359150826931,-0.006835453677922487,-0.004834150429815054
1706236328867386061,0.0979040265083313,9.770929336547852,-0.978713095188141,-0.01769910380244255,-0.0065070586279034615,-0.0026708997320383787
1706236328877803654,0.08466577529907227,9.775333404541016,-0.9787157177925111,-0.0167483389377594,-0.006087703630328178,-0.000367210537660867
1706236328887047728,0.11029833555221558,9.772666931152344,-0.9895867705345155,-0.016774827614426613,-0.005349909886717796,0.0014964633155614138
1706236328898033209,0.09814018756151201,9.755784034729006,-0.9864627122879028,-0.017855308949947357,-0.0041885217651724815,0.002331951167434454
1706236328906935376,0.10439172387123108,9.772346496582031,-0.9907211065292358,-0.01928483322262764,-0.002971999580040574,0.0017222329042851925
1706236328917256246,0.09719168394804002,9.773657798767092,-0.9835104346275331,-0.020213225856423378,-0.0022702913265675306,-0.0002886784786824137
1706236328927265302,0.08719052374362946,9.76658344268799,-0.9849790334701538,-0.02035694196820259,-0.002204040065407753,-0.0030940938740968704
1706236328937460524,0.09452971071004869,9.777359008789062,-0.9877168536186219,-0.020158417522907257,-0.0024138090666383505,-0.00578787038102746
1706236328947053913,0.10672394186258317,9.77975368499756,-0.985749900341034,-0.020264552906155586,-0.0024321225937455893,-0.007652950473129749
1706236328957906820,0.10153588652610779,9.758458137512209,-0.9898280501365663,-0.020758038386702538,-0.0019265321316197515,-0.008475406095385551
1706236328969195117,0.1047041118144989,9.757795333862305,-0.9795078039169312,-0.02108393982052803,-0.0010908208787441254,-0.008455697447061539
1706236328977078431,0.10421371459960938,9.766901016235352,-0.976846754550934,-0.020684055984020233,-0.0007476180326193571,-0.007849427871406078
1706236328987867579,0.09778026491403581,9.768256187438967,-0.9780638217926025,-0.01947305165231228,-0.0015678878407925367,-0.006701407488435507
1706236328997694765,0.10097000002861023,9.769275665283203,-0.9694849848747255,-0.01786698028445244,-0.0033399208914488554,-0.004934751894325018
1706236329007808450,0.11098527163267137,9.761194229125977,-0.9868345260620117,-0.016451343894004822,-0.005242881830781698,-0.002621668390929699
1706236329017164061,0.09443347156047821,9.772310256958008,-0.9813929200172425,-0.015531899407505989,-0.006583660840988159,-0.0002025052235694602
1706236329027898302,0.09916491061449052,9.76759147644043,-0.9820866584777832,-0.015138238668441772,-0.007088394369930029,0.0015845384914427996
1706236329037102820,0.09599702060222626,9.784107208251953,-0.9805467724800111,-0.015335393138229847,-0.006697413511574268,0.0021876816172152758
1706236329047465950,0.1029513403773308,9.776697158813477,-0.9787552356719971,-0.016170749440789223,-0.005338635761290789,0.0016392084071412683
1706236329057805746,0.0949566513299942,9.775350570678711,-0.9862052202224731,-0.017435641959309578,-0.0030136671848595142,0.0004314282850828022
1706236329067847931,0.11001500487327576,9.785807609558107,-0.9833050966262817,-0.018700147047638893,-3.597363320295699e-05,-0.0009115497232414782
1706236329077864802,0.09439609944820404,9.774991035461428,-0.9829738140106201,-0.019510803744196892,0.0030468693003058434,-0.002106520812958479
1706236329087634487,0.09373845160007477,9.756431579589844,-0.9805588722229004,-0.01967254839837551,0.0056015015579760075,-0.0030345472041517496
1706236329097739246,0.09538408368825914,9.771965026855469,-0.9849210381507875,-0.01948140747845173,0.006824880838394165,-0.003603278426453471
1706236329107830098,0.10274675488471985,9.764550209045412,-0.9756729006767274,-0.019452767446637154,0.00607419153675437,-0.003761374158784747
1706236329117161561,0.09759765118360521,9.770627975463867,-0.9745349287986756,-0.019769059494137764,0.0035066932905465364,-0.003468904411420226
1706236329127136153,0.08957429975271226,9.767918586730959,-0.9783540964126587,-0.0202492568641901,7.143112452467903e-05,-0.0026372848078608513
1706236329137050820,0.09095332026481628,9.769610404968263,-0.9858283400535585,-0.020808011293411255,-0.003084610914811492,-0.0013230915647000074
1706236329147010913,0.09686218947172166,9.769269943237305,-0.969533145427704,-0.021600734442472458,-0.005146832205355167,9.503723413217813e-05
1706236329157729228,0.09429426491260529,9.779421806335451,-0.9914332032203675,-0.022671448066830635,-0.005803789012134075,0.0011608022032305598
1706236329167583746,0.0960746929049492,9.757800102233888,-0.9824334383010864,-0.023755507543683052,-0.005172054748982191,0.0015646462561562657
1706236329177010135,0.10345713049173356,9.771642684936523,-0.9913765788078309,-0.024461621418595314,-0.003793551353737712,0.0010797935537993908
1706236329198995968,0.09376509487628937,9.769276618957521,-0.9837483763694764,-0.024480776861310005,-0.0024713368620723486,-0.0003645349061116576
1706236329199838987,0.0942467451095581,9.765897750854492,-0.9783357381820679,-0.023783963173627853,-0.0017683424521237612,-0.002456262009218335
1706236329207802783,0.09603432565927507,9.772297859191896,-0.96409010887146,-0.022741688415408134,-0.0017666915664449334,-0.004392686299979687
1706236329217387320,0.07817642390727997,9.769938468933107,-0.9735099077224731,-0.021961446851491928,-0.0022178697399795055,-0.005083074793219566
1706236329232571616,0.09462688118219377,9.780749320983888,-0.9806935787200928,-0.02203693613409996,-0.0026818292681127787,-0.003836359828710556
1706236329237650339,0.08606014400720598,9.766228675842287,-0.973198652267456,-0.0232565738260746,-0.002689673798158765,-0.001009151921607554
1706236329251959839,0.08862812072038652,9.776021957397461,-0.9789672493934632,-0.02535698562860489,-0.0020455026533454657,0.0022355990950018167
1706236329258144283,0.08815613389015198,9.760828018188477,-0.984508752822876,-0.027706921100616455,-0.0010131519520655274,0.004721009638160467
1706236329268167839,0.08457052707672119,9.773004531860352,-0.9787352681159974,-0.02972498908638954,-0.00015796245133969933,0.005713970400393009
1706236329277347320,0.1008552759885788,9.773661613464357,-0.9787423610687256,-0.031051866710186005,7.769944204483181e-05,0.005083771888166666
1706236329287211616,0.08566397428512573,9.773975372314453,-0.9767893552780151,-0.03147049993276596,-0.0002540162531659007,0.0033477232791483402
1706236329297148227,0.10844558477401733,9.77196788787842,-0.979926347732544,-0.03086346574127674,-0.0006997786113061011,0.001380960806272924
1706236329307106579,0.08501103520393372,9.764868736267092,-0.9729360342025757,-0.029293855652213097,-0.0008926147129386663,-5.538596451515332e-05
1706236329317938394,0.09601639956235887,9.760824203491211,-0.970968782901764,-0.027126483619213104,-0.0009174520382657647,-0.0005293909925967455
1706236329329487116,0.0899442732334137,9.764199256896974,-0.9746257066726685,-0.02503318339586258,-0.0012425417080521584,9.371005580760539e-05
1706236329337091987,0.08921702951192857,9.764849662780763,-0.9632282257080078,-0.02369113266468048,-0.0022707090247422457,0.0016817852156236768
1706236329347775264,0.07999059557914734,9.762850761413576,-0.971444070339203,-0.02349824830889702,-0.003956467844545841,0.003918264992535114
1706236329357675579,0.0875048413872719,9.7682580947876,-0.9752202033996582,-0.024572011083364487,-0.005857978016138077,0.006380898877978325
1706236329368222042,0.07814766466617584,9.766212463378906,-0.9668049216270448,-0.026750005781650543,-0.00742080993950367,0.008531298488378525
1706236329377293987,0.06632047891616821,9.775008201599123,-0.9725992679595947,-0.02967582829296589,-0.008185097947716713,0.009910930879414082
1706236329387994931,0.07794269174337388,9.768247604370117,-0.9717860221862793,-0.033079881221055984,-0.007896685041487217,0.010405365377664566
1706236329397059376,0.05794241279363632,9.765849113464357,-0.9740085601806641,-0.03683023899793625,-0.006637511774897575,0.010172409005463123
1706236329407493672,0.07061568647623064,9.765528678894045,-0.9749705791473389,-0.040779247879981995,-0.004918152466416359,0.009433201514184475
1706236329417481542,0.08232185989618303,9.773639678955078,-0.96990305185318,-0.04461075738072395,-0.0034349372144788504,0.008412935771048069
1706236329428077413,0.09363720566034318,9.762155532836914,-0.9636141061782837,-0.04755169153213501,-0.002612111158668995,0.007428900804370642
1706236329437034524,0.08970245718955994,9.764518737792969,-0.9672972559928895,-0.048430051654577255,-0.0025103373918682337,0.006943122949451208
1706236329447847968,0.10109781473875047,9.758792877197266,-0.9710609912872314,-0.04641342535614967,-0.003090535756200552,0.007317542564123869
1706236329457612338,0.10710327327251434,9.766218185424805,-0.9666803479194642,-0.04157644137740135,-0.0042996942065656185,0.008469865657389164
1706236329467721153,0.09387300908565521,9.774306297302248,-0.9649660587310791,-0.034796323627233505,-0.005862314719706774,0.009949089027941227
1706236329477745172,0.09281907975673676,9.767230987548828,-0.9767645001411439,-0.027517657727003098,-0.007160184904932976,0.01128614041954279
1706236329487799246,0.08974146842956543,9.774310111999513,-0.9703317880630493,-0.02148364670574665,-0.007538758218288422,0.01209590770304203
1706236329497173653,0.08766059577465057,9.775010108947756,-0.975560486316681,-0.01811058819293976,-0.006726921536028385,0.012076511047780514
1706236329507224801,0.08724982291460039,9.783099174499513,-0.9718507528305054,-0.017890000715851784,-0.004843335133045912,0.011173511855304241
1706236329518486801,0.0884067937731743,9.773988723754883,-0.9811314940452577,-0.020299600437283516,-0.0021799250971525908,0.0096249058842659
1706236329527349709,0.07593908160924913,9.772278785705568,-0.9692459106445312,-0.024197526276111603,0.0007973660831339657,0.007788562681525946
1706236329537876487,0.07808132469654083,9.779376983642578,-0.9760454297065736,-0.028472064062952995,0.0034204372204840183,0.0060463338159024715
1706236329547920524,0.0797385722398758,9.769267082214357,-0.9748690128326416,-0.03245474025607109,0.005104406271129847,0.004760624375194311
1706236329557735172,0.0921975150704384,9.765531539916992,-0.9754951000213623,-0.035740938037633896,0.005581213627010584,0.0041065155528485775
1706236329567805746,0.09820902347564697,9.768267631530763,-0.9769727587699891,-0.037790972739458084,0.004800107795745134,0.003979306202381849
1706236329578073061,0.08686134964227678,9.765869140625,-0.9706360101699829,-0.03797956183552742,0.002902704058215022,0.004135779570788145
1706236329587683487,0.09956821799278259,9.762483596801758,-0.966457724571228,-0.03613748028874397,0.00029730310779996216,0.004445215687155724
1706236329598035968,0.09377831965684892,9.76924800872803,-0.9679880142211914,-0.03281766176223755,-0.0024661540519446135,0.005029891151934862
1706236329607958246,0.09523382782936096,9.77059841156006,-0.9690685272216797,-0.02895551361143589,-0.004834129940718412,0.006089474074542522
1706236329617079783,0.08998304605484009,9.758455276489258,-0.9648191928863525,-0.02548236958682537,-0.00635638739913702,0.00761082349345088
1706236329628023024,0.08986043930053711,9.762491226196289,-0.9704083204269409,-0.023143766447901726,-0.00697181886062026,0.009336859919130802
1706236329638048375,0.0954975038766861,9.754730224609375,-0.9721444845199585,-0.022315027192234993,-0.00713957566767931,0.010892827063798904
1706236329647092709,0.08780795335769653,9.775654792785646,-0.9734343886375428,-0.0228496715426445,-0.007434547878801823,0.01186693087220192
1706236329657850449,0.06837923079729082,9.767887115478516,-0.975678861141205,-0.024325208738446236,-0.00794817041605711,0.01193658635020256
1706236329668122190,0.07550164312124254,9.762166976928711,-0.9797071218490601,-0.026603473350405693,-0.008246355690062046,0.011004618369042873
1706236329677395024,0.0819806680083275,9.771261215209961,-0.9714087247848511,-0.02982150949537754,-0.007969061844050884,0.009234987199306488
1706236329687781412,0.08157078176736833,9.768559455871584,-0.9724451303482056,-0.033713631331920624,-0.007160503882914782,0.00707832258194685
1706236329707802375,0.08198966085910797,9.77294921875,-0.9710478782653809,-0.040064018219709396,-0.0046033067628741264,0.004160790704190731
1706236329718040042,0.09493096172809601,9.77230453491211,-0.9712522029876709,-0.04122891649603844,-0.0030035292729735374,0.004154188092797995
1706236329727269894,0.0899956449866295,9.769555091857912,-0.9586471319198608,-0.04075276851654053,-0.0013762369053438306,0.005054132547229528
1706236329737689264,0.09612858295440674,9.76957416534424,-0.9691306352615356,-0.03864482790231705,-4.72758874821011e-05,0.006673290394246578
1706236329747771209,0.0963413417339325,9.758773803710938,-0.9677159786224365,-0.035233307629823685,0.0006036041886545718,0.008787165395915508
1706236329757175246,0.0986275151371956,9.76790523529053,-0.9764854907989502,-0.031147098168730736,0.0002671757829375565,0.010923481546342373
1706236329767955598,0.09459399431943895,9.767187118530273,-0.9710331559181214,-0.027099693194031715,-0.0010922127403318882,0.012389595620334148
1706236329778017338,0.10179391503334045,9.756071090698242,-0.96712464094162,-0.023704955354332924,-0.0031088623218238354,0.012693149037659168
1706236329787841672,0.09451050311326982,9.76824474334717,-0.972344160079956,-0.02132420241832733,-0.005270970053970814,0.01192251592874527
1706236329797871172,0.08578766882419586,9.76179599761963,-0.9654462337493896,-0.020076407119631767,-0.0071860309690237045,0.010648630559444427
1706236329810513949,0.08913695812225342,9.774965286254883,-0.9718889594078065,-0.020050376653671265,-0.008519374765455723,0.009511477313935757
1706236329817456746,0.08004922419786455,9.778693199157717,-0.9709898233413696,-0.02133880741894245,-0.008882999420166016,0.00889290776103735
1706236329828108672,0.07893960922956468,9.768880844116211,-0.9639890789985658,-0.023869328200817108,-0.007933799177408218,0.008831998333334923
1706236329859836246,0.07993530482053758,9.765188217163086,-0.9737671613693237,-0.027347490191459656,-0.005766857881098986,0.009181322529911995
1706236329862579579,0.07180117070674896,9.771250724792482,-0.9676553010940552,-0.03130853921175003,-0.003152931109070778,0.009740393608808517
1706236329862652523,0.077413909137249,9.775649070739748,-0.9730959534645082,-0.035239625722169876,-0.0010442935163155198,0.010256550274789333
1706236329867798153,0.0809655487537384,9.761811256408693,-0.967290997505188,-0.038678836077451706,8.609839278506115e-05,0.010510750114917755
1706236329877602597,0.08723387122154236,9.767863273620607,-0.964186429977417,-0.041148364543914795,0.00022464606445282698,0.010483159683644772
1706236329888042579,0.08136568218469621,9.770579338073732,-0.9686794281005859,-0.04218088462948799,-0.00048520107520744205,0.010399941354990005
1706236329897550264,0.08262520283460618,9.769228935241701,-0.9707844853401185,-0.041633717715740204,-0.0017154553206637502,0.010516757145524025
1706236329907197690,0.08496737480163574,9.766886711120607,-0.9814951419830322,-0.03990419954061508,-0.002962381113320589,0.010774956084787846
1706236329917295357,0.0905781239271164,9.77061653137207,-0.9803845286369325,-0.037672724574804306,-0.0038294903934001923,0.010699864476919174
1706236329927148375,0.08765167742967607,9.771260261535646,-0.98309463262558,-0.03545880690217018,-0.004168913699686527,0.009699288755655289
1706236329937171042,0.08750391006469727,9.777013778686523,-0.9723379015922547,-0.03349846974015236,-0.003954836167395115,0.007567499298602343
1706236329947805560,0.09540296345949174,9.76689338684082,-0.9791761636734009,-0.031876906752586365,-0.0032015047036111355,0.00476983655244112
1706236329959878338,0.08941351622343065,9.778022766113281,-0.9730678796768188,-0.030564120039343834,-0.002051995135843754,0.0021944078616797924
1706236329967597523,0.08721364289522172,9.768228530883789,-0.976154088973999,-0.029467597603797913,-0.0007933314773254097,0.0006043631001375616
1706236329978644116,0.08096788078546525,9.766853332519531,-0.9599592685699463,-0.02865850366652012,0.00024250955902971327,0.00036041761632077396
1706236329988527931,0.07586731761693956,9.765506744384766,-0.9656677842140199,-0.028484264388680458,0.000705009326338768,0.0015502673340961337
1706236329997799949,0.06985781341791154,9.764855384826662,-0.9766904711723329,-0.02941271662712097,0.00031181317172013223,0.004015088547021151
1706236330007789764,0.08727408200502397,9.765889167785646,-0.9851631522178651,-0.03167875483632088,-0.0009538203594274819,0.007021682802587748
1706236330018138060,0.08787962794303894,9.757115364074709,-0.9892966747283936,-0.034831080585718155,-0.0028230699244886637,0.009208346717059612
1706236330029449171,0.07809709012508392,9.76418685913086,-0.9835011959075928,-0.03774077072739601,-0.004949311260133982,0.009271753951907158
1706236330037198986,0.08546187728643419,9.766202926635742,-0.9734328985214233,-0.03938544541597366,-0.007014161441475153,0.0068952604196965694
1706236330047178394,0.08329369872808458,9.779029846191406,-0.9758013486862183,-0.03950536251068115,-0.008579878136515617,0.0030902093276381493
1706236330057828634,0.0835600346326828,9.7716064453125,-0.9791655540466309,-0.03847505524754524,-0.009039835073053837,-0.00044819351751357317
1706236330067481153,0.08722184598445892,9.768227577209474,-0.9785773158073426,-0.036890625953674316,-0.008001214824616909,-0.0024543169420212507
1706236330077611153,0.10111963748931885,9.778722763061523,-0.9855601787567139,-0.0351996123790741,-0.005712450481951237,-0.0027046273462474346
1706236330087740671,0.08348578214645386,9.781730651855469,-0.9774640202522279,-0.03346618637442589,-0.002846399089321494,-0.0018294488545507193
1706236330097870783,0.10146047919988634,9.77433490753174,-0.9869059324264526,-0.03157315030694008,5.529661939362995e-05,-0.0007255731616169214
1706236330108649986,0.0761973112821579,9.763862609863281,-0.9857137799263002,-0.029611727222800255,0.0025982132647186518,-9.717929788166657e-05
1706236330118913171,0.08941006660461426,9.77567768096924,-0.982148587703705,-0.028009964153170586,0.004252565558999777,-0.0003031781525351107
1706236330127973986,0.08639384806156158,9.769265174865724,-0.9827585220336914,-0.02731061913073063,0.004577299114316702,-0.0012879432179033756
1706236330138077264,0.07498542964458466,9.769943237304688,-0.9884260892868042,-0.02777762897312641,0.003640573238953948,-0.0026472362224012613
1706236330147351449,0.07262819260358812,9.78143310546875,-0.9828132390975952,-0.02936643548309803,0.0019982352387160063,-0.003949766978621483
1706236330157928634,0.0733187571167946,9.77937412261963,-0.9861815571784974,-0.031979888677597046,0.00047143371193669736,-0.0049573020078241825
1706236330167996931,0.08311637490987779,9.778385162353516,-0.983267068862915,-0.03536194562911987,-0.000124541184050031,-0.005580482073128223
1706236330178254523,0.09067485481500627,9.768923759460451,-0.9927209615707397,-0.03877142816781998,0.000540362554602325,-0.005850618705153465
1706236330187236449,0.08844202756881714,9.75947380065918,-0.9909827113151551,-0.041062165051698685,0.0019513169536367059,-0.005994830746203661
1706236330197272653,0.09119997173547746,9.759133338928224,-0.9930593967437744,-0.041296422481536865,0.0029266593046486378,-0.006390041206032038
1706236330207324449,0.0922616943717003,9.763204574584961,-0.9901530146598817,-0.039326056838035583,0.00233791908249259,-0.0073050386272370815
1706236330217639245,0.09125827252864838,9.76382350921631,-0.967841625213623,-0.0358034111559391,-0.00010685392771847546,-0.008568554185330868
1706236330228384708,0.08521183580160142,9.75811290740967,-0.9781237840652466,-0.03180904686450958,-0.003723080502822995,-0.009401584044098854
1706236330237363560,0.0854676365852356,9.76858425140381,-0.9831140637397767,-0.02848443016409874,-0.007403128314763308,-0.008873260580003262
1706236330247448449,0.08623894304037096,9.765539169311523,-0.9801619052886963,-0.026684222742915154,-0.010169578716158867,-0.006790016777813435
1706236330257221727,0.08885467797517778,9.768252372741701,-0.9926984906196595,-0.02664569392800331,-0.011414720676839352,-0.003956829663366079
1706236330282976079,0.09049674123525621,9.770261764526367,-0.9849392771720887,-0.027905676513910294,-0.011018752120435238,-0.0016158021753653884
1706236330287441968,0.07601059973239899,9.76790523529053,-0.987504243850708,-0.03102266788482666,-0.006801113951951265,-0.0013945241225883365
1706236330297698708,0.07134655117988586,9.772628784179688,-0.9847690463066102,-0.03210350126028061,-0.004139596130698919,-0.003133603138849139
1706236330307360708,0.08089783042669298,9.774307250976562,-0.9859825372695923,-0.033341582864522934,-0.0018732754979282618,-0.005134289152920246
1706236330320553523,0.08419902622699738,9.7678918838501,-0.9853066205978394,-0.035113535821437836,-0.00030937735573388636,-0.006732358131557703
1706236330328142264,0.09153589606285095,9.760809898376467,-0.988787591457367,-0.03708586469292641,0.00044318518484942615,-0.007592325564473867
1706236330337771097,0.09773507714271545,9.762864112854006,-0.991680681705475,-0.03833342343568802,0.00024177104933187366,-0.007788090500980616
1706236330348036486,0.08022090792655945,9.756814002990724,-0.9983574151992798,-0.03800511732697487,-0.0010624208953231573,-0.007754154969006777
1706236330358267931,0.09199477732181549,9.765902519226076,-0.9868141412734985,-0.036032699048519135,-0.0033670486882328987,-0.008049090392887592
1706236330367571079,0.08780114352703094,9.75879764556885,-0.9735718369483949,-0.03320988267660141,-0.006191992200911045,-0.008851042948663235
1706236330378181005,0.08658777922391893,9.767234802246094,-0.9732464551925659,-0.030559353530406952,-0.008830762468278408,-0.009547888301312923
1706236330399925042,0.08997294306755066,9.760808944702148,-0.9761699438095093,-0.028136128559708595,-0.011368322186172009,-0.006793223787099123
1706236330407849245,0.09094905108213426,9.75878429412842,-0.979856312274933,-0.028387023136019707,-0.011150716803967953,-0.0030648692045360804
1706236330417391801,0.07466664910316467,9.761848449707031,-0.9924349188804628,-0.029097454622387886,-0.01053063664585352,0.000896065728738904
1706236330467366005,0.07370703667402269,9.771971702575685,-0.97232323884964,-0.0372682623565197,-0.008359788917005062,0.00027532054809853435
1706236330477338393,0.07713919878005981,9.7678918838501,-0.9705882668495179,-0.03889032080769539,-0.00788703840225935,0.0009495673584751785
1706236330488137764,0.07877149432897569,9.767224311828615,-0.9742927551269531,-0.040423907339572906,-0.007255452685058117,0.002737236674875021
1706236330507342801,0.09342601895332336,9.774296760559084,-0.974939227104187,-0.04191732406616211,-0.005023387726396322,0.0065165008418262005
1706236330517739708,0.08316254615783691,9.767554283142092,-0.9768101572990419,-0.04072435572743416,-0.0033247568644583225,0.0070550935342907906
1706236330527302467,0.09343972057104112,9.758115768432617,-0.9716709852218628,-0.038052771240472794,-0.0015393707435578108,0.006481168791651726
1706236330537554893,0.09182924777269365,9.766218185424805,-0.9767646193504335,-0.03458085283637047,-0.00040724768768996,0.005318262614309788
1706236330547869560,0.07861900329589844,9.765874862670898,-0.9688048362731934,-0.031212715432047844,-0.0005787300760857761,0.004236752633005381
1706236330557804708,0.0757550448179245,9.766539573669435,-0.9705870151519775,-0.028838299214839935,-0.0020236351992934942,0.0037465435452759266
1706236330567241616,0.07878652215003967,9.771951675415039,-0.9777335524559022,-0.028249334543943405,-0.00405126204714179,0.0040566870011389256
1706236330577512060,0.07784957438707353,9.769599914550781,-0.978920876979828,-0.02973807044327259,-0.005760451778769493,0.004936994053423405
1706236330588316153,0.08710770308971405,9.75677013397217,-0.9770294427871704,-0.032760076224803925,-0.006549701560288668,0.005774227436631918
1706236330597329560,0.08426354825496674,9.768247604370117,-0.9796922802925111,-0.03611709177494049,-0.006485153920948505,0.005982773844152689
1706236330608133208,0.08260108530521393,9.762514114379883,-0.9762363433837891,-0.03855756297707558,-0.0061253998428583145,0.005372540559619665
1706236330617276023,0.09201750159263611,9.765551567077638,-0.9791126251220703,-0.039375271648168564,-0.005957134999334812,0.00416856724768877
1706236330627410819,0.08699634671211243,9.761830329895021,-0.9773774147033691,-0.03854075074195862,-0.0061406404711306095,0.0028015179559588432
1706236330637422004,0.0888228714466095,9.781077384948732,-0.9848774671554565,-0.036477334797382355,-0.006543799303472042,0.001633476815186441
1706236330647704245,0.08436485379934312,9.782750129699709,-0.9917747378349305,-0.03388213366270065,-0.006661681458353996,0.0007070699357427657
1706236330658080282,0.09125935286283494,9.77061653137207,-0.9828354120254517,-0.03152550011873245,-0.005759452935308218,-0.0002888700400944799
1706236330668122838,0.08755835890769958,9.764860153198242,-0.9829784631729126,-0.02992967888712883,-0.0035996774677187204,-0.0016449972754344344
1706236330680763449,0.09028232097625732,9.761162757873537,-0.9838827848434448,-0.029187073931097984,-0.0009735975763760507,-0.0032295940909534693
1706236330687320634,0.08400505781173706,9.76658344268799,-0.9914848804473877,-0.029094316065311432,0.0007869760156609118,-0.004642084240913391
1706236330697475949,0.08883695304393768,9.767911911010742,-0.989355504512787,-0.029408564791083336,0.0008251101244240999,-0.005688139237463474
1706236330707605782,0.08364345133304596,9.759844779968263,-0.9879435300827026,-0.02996244840323925,-0.0007490355637855828,-0.006505691912025213
1706236330717795171,0.09594679623842241,9.766916275024414,-0.9943740367889404,-0.030598029494285583,-0.003198831109330058,-0.0073083206079900265
1706236330728226986,0.07961242645978929,9.765551567077638,-0.989539921283722,-0.03109993226826191,-0.005702622700482607,-0.00821240060031414
1706236330737185041,0.08227655291557312,9.766899108886719,-0.9858677387237549,-0.031366877257823944,-0.0075983405113220215,-0.009201208129525185
1706236330747229486,0.08219655603170396,9.768928527832031,-0.9772350192070008,-0.03161397576332092,-0.008491442538797855,-0.010010323487222195
1706236330757746930,0.09301718324422838,9.772643089294435,-0.9797303080558778,-0.03212009370326996,-0.008298741653561592,-0.010119439102709293
1706236330767907430,0.08741745352745056,9.776689529418945,-0.9777010679244995,-0.03278297185897827,-0.007136328611522913,-0.009073457680642605
1706236330777988430,0.07854345440864563,9.768917083740234,-0.9763361215591431,-0.03321944922208786,-0.005220815073698759,-0.006852741353213787
1706236330787339727,0.09058769792318346,9.776661872863771,-0.9591242074966431,-0.0332740880548954,-0.002915231278166175,-0.0038129750173538923
1706236330797448486,0.09258483350276947,9.76928234100342,-0.9802615046501161,-0.033068496733903885,-0.0007098701316863298,-0.0003285114071331918
1706236330807919671,0.0941336825489998,9.754422187805178,-0.9803967475891113,-0.03259465470910072,0.0008626991766504943,0.003165902802720666
1706236330818367375,0.09170623868703844,9.758811950683594,-0.9813881516456605,-0.031657855957746506,0.0011911987094208598,0.005892269778996706
1706236330827828615,0.10040892660617828,9.755435943603516,-0.9879168868064881,-0.030170878395438194,-0.00024218662292696536,0.0069923498667776585
1706236330839080764,0.10651743412017822,9.779062271118164,-0.9849119186401367,-0.02818731591105461,-0.0032999245449900627,0.006077971775084734
1706236330847997986,0.09321998804807664,9.769935607910156,-0.9716391563415527,-0.02576260454952717,-0.00684945285320282,0.0034996476024389267
1706236330857494801,0.10204039514064789,9.775652885437013,-0.9654210209846498,-0.02309544011950493,-0.009266452863812447,0.00039782526437193155
1706236330867620578,0.0813702791929245,9.762483596801758,-0.9693493843078613,-0.020727502182126045,-0.00951404683291912,-0.0016445384826511145
1706236330877616708,0.09371241182088853,9.768598556518555,-0.973891019821167,-0.019414005801081657,-0.007799701765179634,-0.0015013994416221976
1706236330891290245,0.08825929462909698,9.7665491104126,-0.9688976407051088,-0.019702814519405365,-0.005255410447716713,0.0007822804036550224
1706236330898025245,0.0819193795323372,9.767575263977053,-0.9748824834823608,-0.021563837304711342,-0.003086032113060355,0.004179690033197403
1706236330920897078,0.08464070409536363,9.767558097839357,-0.9736628532409668,-0.02449227310717106,-0.001963802380487323,0.007407485973089933
1706236330920977338,0.09402446448802948,9.767911911010742,-0.9811866283416748,-0.027806991711258888,-0.0019414073321968317,0.009464370086789131
1706236330927644708,0.07307264953851701,9.765222549438477,-0.9808469414711,-0.030783409252762794,-0.0026706773787736893,0.009824668057262897
1706236330938142764,0.08208440989255907,9.772632598876953,-0.9762810468673706,-0.03297293931245804,-0.0036747222766280174,0.008491894230246544
1706236330947301486,0.08707860857248308,9.757777214050295,-0.9729909896850586,-0.03443511947989464,-0.004552735481411219,0.0060391551814973354
1706236330958407967,0.0853845700621605,9.770265579223633,-0.974991261959076,-0.03536122664809227,-0.005145303439348936,0.0034622198436409235
1706236330967750060,0.10504002124071123,9.76486110687256,-0.9711251854896547,-0.03564416617155075,-0.005525035783648491,0.001723637804389
1706236330979831986,0.09640026092529297,9.77462673187256,-0.9730030894279481,-0.034874994307756424,-0.005738105159252882,0.001323122181929648
1706236330987976078,0.10684612393379211,9.776651382446289,-0.969741940498352,-0.03265644982457161,-0.005613612476736307,0.0022076161112636328
1706236331000042171,0.08840042352676392,9.769563674926758,-0.970932126045227,-0.029070669785141945,-0.004871533252298832,0.003947254735976458
1706236331007350560,0.09043121337890625,9.760115623474123,-0.9664143323898315,-0.024959266185760498,-0.0035161739215254784,0.0060016438364982605
1706236331027088689,0.10017162561416626,9.774324417114258,-0.9795132875442505,-0.021606849506497383,-0.002083325758576393,0.00789534579962492
1706236331028883634,0.09267686307430267,9.755402565002443,-0.9748727083206177,-0.019905874505639076,-0.0012827240861952305,0.009190812706947327
1706236331038589078,0.08811633288860321,9.773294448852539,-0.9721103310585023,-0.01990307867527008,-0.001494935480877757,0.009524311870336533
1706236331051825856,0.08613400161266327,9.772288322448732,-0.9668778777122499,-0.021183956414461136,-0.0025718356482684612,0.0089110117405653
1706236331057305208,0.08375789970159532,9.778358459472656,-0.972356915473938,-0.023339059203863144,-0.003825455205515027,0.007878378964960575
1706236331068032393,0.09316635876893999,9.783411026000977,-0.9776719808578491,-0.025979455560445786,-0.004311446100473404,0.007055475376546383
1706236331077295726,0.07734673470258714,9.771928787231445,-0.9669522047042847,-0.028624240309000015,-0.003373438026756048,0.006690631620585918
1706236331087596893,0.07423709332942963,9.771580696105959,-0.9684779644012451,-0.030917508527636528,-0.001111318706534803,0.00672132009640336
1706236331098503060,0.07059853523969652,9.768193244934084,-0.9613278508186341,-0.03297772631049156,0.0015719678485766053,0.007150235120207071
1706236331107663578,0.08556684106588365,9.763832092285156,-0.9783449769020082,-0.03519535809755325,0.0034821955487132072,0.008057888597249985
1706236331119072393,0.08953019976615906,9.759139060974123,-0.9910283684730531,-0.037539467215538025,0.003742462256923318,0.009156474843621254
1706236331128043634,0.10699242353439331,9.748705863952638,-1.0008373260498047,-0.039196647703647614,0.002010833937674761,0.009451864287257195
1706236331138072319,0.1145973652601242,9.755483627319336,-1.0126119852066042,-0.0388922393321991,-0.0015876577235758305,0.007579460274428129
1706236331147223226,0.11539574712514879,9.758522033691406,-1.018357276916504,-0.03558820113539696,-0.0064589581452310085,0.0025820902083069086
1706236331157703541,0.1158810555934906,9.76863765716553,-1.0127338171005251,-0.029178189113736153,-0.011470106430351734,-0.005495881196111441
1706236331167763356,0.10957591980695726,9.765907287597656,-1.0005812644958496,-0.02077045850455761,-0.015192246064543724,-0.015376693569123745
1706236331177796245,0.10876690596342088,9.776712417602539,-0.9957578778266908,-0.012312748469412327,-0.016495894640684128,-0.024763891473412514
1706236331187450393,0.10751227289438249,9.782449722290039,-0.9933550953865052,-0.0057771289721131325,-0.01497720554471016,-0.031188808381557465
1706236331197646615,0.10933731496334076,9.778081893920898,-0.9993127584457397,-0.0023538561072200537,-0.010950124822556973,-0.033179283142089844
1706236331207867597,0.10833790153265001,9.771688461303711,-1.0039223432540896,-0.002073045587167144,-0.005353318061679602,-0.030993392691016197
1706236331218233708,0.10242412984371185,9.77168941497803,-0.9983802437782289,-0.004044087138026953,0.00034879674785770476,-0.026390165090560913
1706236331228031856,0.0932769998908043,9.764245033264162,-0.9984673857688905,-0.00713653489947319,0.004594168160110712,-0.021566543728113174
1706236331238077689,0.08895131200551988,9.773370742797852,-1.0041009187698366,-0.010627497918903828,0.006363116204738617,-0.018096499145030975
1706236331248100208,0.09142241626977922,9.777077674865724,-0.9952808618545532,-0.014330167323350906,0.0056436937302351,-0.016574691981077194
1706236331258465486,0.10903733968734741,9.777073860168459,-0.9900641441345215,-0.018115399405360222,0.0034466900397092104,-0.016716275364160538
1706236331267840763,0.10099057108163835,9.771648406982422,-0.9748159050941468,-0.0213739313185215,0.0011969906045123935,-0.01749691180884838
1706236331277876967,0.12593384087085727,9.779431343078615,-0.9768965840339662,-0.023085271939635277,-9.17748111533001e-05,-0.01748599298298359
1706236331287901411,0.13746063411235812,9.774682044982912,-0.9748663902282715,-0.022242587059736252,-0.0001339995942544192,-0.015533976256847382
1706236331297898263,0.14901240170001986,9.765239715576172,-0.9745742082595825,-0.018083328381180763,0.0007704978343099356,-0.01143091544508934
1706236331307467041,0.1456654965877533,9.758453369140625,-0.9595304727554321,-0.010389230214059353,0.0018453458324074745,-0.005897421855479479
1706236331317765245,0.13416786491870883,9.769232749938967,-0.959296703338623,-1.593174420122523e-05,0.0020897958893328905,0.00010553613537922502
1706236331338047874,0.11548183113336564,9.77431392669678,-0.9616618752479554,0.019472379237413406,-0.0015952056273818016,0.010934818536043167
1706236331348111263,0.10593965649604797,9.766575813293459,-0.9671004414558412,0.023303404450416565,-0.004526934586465359,0.014685229398310184
1706236331357996374,0.0880255624651909,9.77129650115967,-0.9793046712875366,0.021332651376724243,-0.006845705211162567,0.0167540255934
1706236331367983226,0.09052678942680359,9.772619247436523,-0.9675764441490174,0.013999865390360355,-0.007786804810166359,0.016967888921499252
1706236331386353930,0.09429139643907548,9.781418800354006,-0.9711979031562806,0.002947145840153098,-0.00713491253554821,0.015484986826777458
1706236331387713615,0.09704361110925676,9.782751083374023,-0.9720608592033387,-0.009304179809987545,-0.0050404430367052555,0.012959177605807781
1706236331397717226,0.10261794179677965,9.769277572631836,-0.982095777988434,-0.019971530884504318,-0.0018803762504830956,0.010241121053695679
1706236331408128763,0.10494912415742876,9.777358055114748,-0.9792333245277406,-0.02689824439585209,0.0016184698324650526,0.007823181338608265
1706236331417448985,0.12619251012802124,9.779386520385742,-0.9732570648193359,-0.029096953570842743,0.004527361132204533,0.005756850820034742
1706236331427518226,0.1292400062084198,9.756776809692383,-0.9722452759742738,-0.026620354503393173,0.0061744689010083675,0.0040676346980035305
1706236331443879226,0.13218224048614502,9.75607681274414,-0.9619466066360474,-0.02021096646785736,0.006154114846140146,0.003054696135222912
1706236331451868671,0.14576406776905063,9.757449150085451,-0.9581139087677002,-0.011143934912979603,0.0041235690005123615,0.0032127865124493837
1706236331459853208,0.12585635483264926,9.769566535949709,-0.960604190826416,-0.0010542451636865735,0.00018950123921968043,0.004945351276546717
1706236331467913763,0.1378835588693619,9.7689208984375,-0.9645501375198364,0.00830657035112381,-0.0046159070916473866,0.008180547505617142
1706236331480060522,0.12566594779491427,9.769248962402344,-0.9682532548904419,0.015374607406556606,-0.00867374986410141,0.012151338160037994
1706236331488031226,0.12338323146104814,9.76826286315918,-0.9768282771110536,0.019186580553650856,-0.010714506730437279,0.015615011565387249
1706236331499362171,0.11447134613990784,9.783083915710451,-0.973308801651001,0.019541027024388313,-0.010383269749581814,0.017377419397234917
1706236331511430319,0.09657598286867143,9.775653839111328,-0.971787691116333,0.01675829477608204,-0.008030509576201439,0.016856763511896133
1706236331519944893,0.09764239937067033,9.766536712646484,-0.9783448576927186,0.011339190416038036,-0.004389852285385132,0.014370092190802097
1706236331527819134,0.09028171002864838,9.782769203186037,-0.9741799831390381,0.00388138135895133,-0.0005072331405244768,0.010856549255549908
1706236331537796152,0.08521658927202226,9.77226448059082,-0.9653329849243164,-0.004775453824549913,0.002614334225654602,0.007385517004877329
1706236331551682448,0.08981207013130188,9.780698776245117,-0.9701742529869081,-0.013578958809375763,0.004521470051258802,0.00491483835503459
1706236331569283726,0.10195773839950562,9.767179489135742,-0.9657626748085023,-0.027403006330132484,0.005317711271345615,0.004824510775506496
1706236331578133319,0.10834702849388123,9.77024555206299,-0.9740668535232544,-0.030621947720646858,0.004675894044339657,0.00663796765729785
1706236331587796448,0.1254686415195465,9.759465217590334,-0.9836547970771791,-0.0305514857172966,0.0033801377285271883,0.008636967279016972
1706236331597754374,0.1219279393553734,9.760143280029297,-0.9839099645614624,-0.027009297162294388,0.0013708827318623662,0.00980424415320158
1706236331608109819,0.13123066723346713,9.753054618835451,-0.9939180612564087,-0.02040581777691841,-0.0013712320942431688,0.009246251545846462
1706236331617816671,0.12921033799648288,9.769625663757326,-0.9980602264404297,-0.01184938009828329,-0.004696103278547525,0.006545902695506811
1706236331629812078,0.11466562002897264,9.757130622863771,-0.996955394744873,-0.002958152676001191,-0.008090116083621979,0.0018796178046613932
1706236331637439448,0.08810503780841827,9.772615432739258,-0.9871055483818055,0.004306102637201548,-0.010774350725114346,-0.003981269896030426
1706236331647654485,0.07556276023387909,9.7675256729126,-0.971882998943329,0.007743297144770622,-0.012075628153979778,-0.009647117927670479
1706236331658043985,0.08108147978782654,9.76820182800293,-0.9736714959144593,0.0055776857770979404,-0.011712176725268364,-0.013354194350540638
1706236331668137004,0.06705182790756226,9.76685428619385,-0.9683275818824769,-0.0024190163239836693,-0.00993708148598671,-0.013707054778933525
1706236331677415837,0.06805186718702318,9.778012275695803,-0.982143759727478,-0.014568524435162544,-0.007417548913508654,-0.010516420938074589
1706236331687905541,0.06070693954825402,9.769590377807617,-0.9835999608039857,-0.02815697342157364,-0.004803706891834736,-0.005067748948931694
1706236331698190893,0.06127899512648583,9.766225814819336,-0.9934940338134766,-0.04062335193157196,-0.002514827996492386,0.00040107761742547154
1706236331707247208,0.07172459363937378,9.773284912109375,-0.984262228012085,-0.05023389682173729,-0.0008808865677565336,0.003753162221983075
1706236331718656745,0.07443546503782274,9.773641586303711,-0.9725050926208496,-0.05611955001950264,-8.91988820512779e-05,0.004043555352836847
1706236331727377078,0.08178628981113434,9.764143943786623,-0.971318244934082,-0.05806291848421097,-1.014649387798272e-05,0.00202365149743855
1706236331737372282,0.10341351479291917,9.762461662292482,-0.9735483527183534,-0.05631939694285393,-0.00042149529326707125,-0.000441038457211107
1706236331747909448,0.11005061864852905,9.754359245300295,-0.9739949107170106,-0.05133288726210594,-0.0013558529317378998,-0.0016683783615007997
1706236331757490578,0.12364257127046586,9.764174461364748,-0.992291033267975,-0.04352393001317978,-0.003022198798134923,-0.0011398626957088709
1706236331767844245,0.11704565584659576,9.757754325866701,-0.9947185516357422,-0.03348086029291153,-0.005411564372479916,0.0003165639063809067
1706236331777381985,0.09803002327680589,9.746618270874023,-0.9931710362434388,-0.022414298728108406,-0.008183623664081097,0.0011236503487452865
1706236331787914263,0.10108765214681627,9.76317882537842,-0.9922435283660889,-0.012378866784274578,-0.010975969024002552,6.213211599970236e-05
1706236331797978078,0.08052077889442444,9.769918441772461,-0.9962551593780518,-0.00573121290653944,-0.01343249250203371,-0.0029754997231066227
1706236331807979263,0.06977761536836626,9.766563415527344,-0.997344970703125,-0.004170713946223259,-0.014920313842594624,-0.0071762376464903355
1706236331819059948,0.06448154896497728,9.77232074737549,-1.0052742958068848,-0.008206238970160484,-0.014762953855097294,-0.011521714739501476
1706236331828132022,0.04465753585100174,9.78212070465088,-1.013134479522705,-0.017139773815870285,-0.012743652798235416,-0.015398119576275349
1706236331838257078,0.0468689687550068,9.782787322998047,-1.0108590126037598,-0.02940129116177559,-0.009105120785534382,-0.01879972033202648
1706236331847850837,0.05734261497855187,9.782107353210451,-1.0150949954986572,-0.04296620562672615,-0.004323291592299938,-0.022048113867640495
1706236331858091874,0.06395428627729417,9.778413772583008,-1.0235345363616943,-0.0555112361907959,0.0008932381169870496,-0.025394542142748833
1706236331868145670,0.07103983312845231,9.767283439636232,-1.0119146108627322,-0.0646936446428299,0.005563321057707071,-0.028891826048493385
1706236331878184170,0.08930240571498871,9.766254425048828,-1.016024947166443,-0.06880232691764832,0.008583026938140392,-0.03233431279659271
1706236331888791781,0.10044709593057634,9.759525299072266,-1.0220963954925537,-0.06718951463699341,0.009088360704481602,-0.03527490049600601
1706236331898036541,0.12374809384346008,9.75919818878174,-1.0174312591552734,-0.06016947329044342,0.0068522728979587555,-0.037368305027484894
1706236331908117356,0.1269999593496323,9.753440856933594,-1.015937328338623,-0.048705559223890305,0.002391774207353592,-0.03860130161046982
1706236331918847893,0.1220720112323761,9.744330406188967,-0.9957310557365419,-0.03429848700761795,-0.0033353669568896294,-0.03901071101427078
1706236331927765856,0.12474234402179718,9.756815910339357,-1.001218557357788,-0.019071193411946297,-0.009358375333249569,-0.038317084312438965
1706236331937768670,0.12036935985088348,9.766580581665039,-0.9997106194496156,-0.005489582195878029,-0.014751116745173931,-0.03609668090939522
1706236331947804263,0.09590905159711839,9.756777763366701,-0.9934218525886537,0.004298471845686436,-0.018497562035918236,-0.03234346956014633
1706236331957863300,0.09042004495859148,9.771304130554201,-1.0045826435089111,0.008826488628983498,-0.019814640283584595,-0.027677174657583237
1706236331967918300,0.08161191642284393,9.77302360534668,-1.0136635303497314,0.007449062075465918,-0.018571656197309494,-0.023167917504906654
1706236331978076541,0.06246550008654595,9.774053573608398,-1.015026569366455,0.0005713143036700785,-0.015202878974378109,-0.020114848390221596
1706236331990212004,0.062193151563406,9.77638912200928,-1.0159766674041748,-0.010446463711559772,-0.010469888336956501,-0.019575603306293488
1706236331998145596,0.06960780918598175,9.767663002014162,-1.0166465044021609,-0.023659540340304375,-0.005356547888368368,-0.021771330386400223
1706236332008239207,0.06017676740884781,9.781121253967287,-1.008686423301697,-0.03679097071290016,-0.0008801698568277061,-0.025919059291481972
1706236332018841374,0.06701818108558655,9.774031639099123,-0.99411940574646,-0.04769447445869446,0.0022778953425586224,-0.03049004077911377
1706236332027763818,0.0759400725364685,9.782460212707521,-0.9918960928916932,-0.054971516132354736,0.004044973291456699,-0.03363531082868576
1706236332037568022,0.09186019003391266,9.767277717590334,-0.9865486025810243,-0.05805659666657448,0.004789106547832489,-0.03383316472172737
1706236332052141911,0.09905315190553667,9.764231681823732,-0.9777647256851196,-0.056880053132772446,0.0048196748830378056,-0.03053809329867363
1706236332059765152,0.1088569164276123,9.75476932525635,-0.9721565246582031,-0.05173300951719284,0.004026653710752726,-0.024268707260489464
1706236332067384633,0.12287476658821106,9.743304252624513,-0.9756615161895752,-0.04333442822098732,0.0019521419890224934,-0.016197899356484413
1706236332077915559,0.12562625110149386,9.758134841918945,-0.9844034910202026,-0.03274194896221161,-0.0017912170151248574,-0.00782119669020176
1706236332087885948,0.1333933174610138,9.747385025024414,-1.0004069805145264,-0.021149003878235817,-0.006997690070420504,-0.0008503338904120028
1706236332097995596,0.12431909888982774,9.75680923461914,-0.9913504123687744,-0.009793429635465145,-0.012711312621831894,0.003062112256884575
1706236332107348670,0.10817793756723405,9.771329879760742,-0.9972365498542787,-2.183021751989145e-05,-0.017589736729860306,0.003022049553692341
1706236332117949448,0.10286118835210802,9.765937805175781,-0.9892743229866029,0.006660667713731527,-0.020326532423496246,-0.0005079510738141835
1706236332128594337,0.09009552001953125,9.778737068176271,-0.9729673266410829,0.008918569423258305,-0.020065151154994965,-0.005800002254545689
1706236332138483985,0.08657325804233551,9.775674819946289,-0.9793349504470825,0.006210945546627045,-0.01678556576371193,-0.010502028279006481
1706236332153152411,0.07926929742097856,9.785136222839357,-0.970930814743042,-0.0008659532759338617,-0.011268622241914272,-0.012598314322531223
1706236332158010170,0.07329911738634111,9.773646354675295,-0.965603232383728,-0.010783878155052662,-0.00473710335791111,-0.011248295195400715
1706236332168575874,0.08107890933752061,9.760501861572266,-0.9849465489387513,-0.021606042981147766,0.0013745505129918456,-0.0069575184024870396
1706236332178479966,0.09285082668066026,9.771661758422852,-0.9920090436935425,-0.0313795804977417,0.005581741686910391,-0.0013658907264471054
1706236332188386244,0.09514248371124268,9.757142066955568,-0.9897334575653076,-0.038316793739795685,0.006851992569863796,0.003229487221688032
1706236332197843578,0.10396527498960496,9.75851821899414,-0.9933258295059204,-0.041145239025354385,0.005088751204311848,0.004926278255879879
1706236332207493689,0.10774743556976318,9.766282081604006,-0.9871716499328613,-0.03955507650971413,0.0010590300662443042,0.003203117987141013
1706236332220861837,0.13118258118629456,9.776722908020021,-0.9746225476264955,-0.03418479859828949,-0.003844305407255888,-0.0009223019587807357
1706236332228325485,0.11472287774085999,9.769268035888672,-0.9713757038116455,-0.026159033179283142,-0.00788898579776287,-0.005404074676334858
1706236332237487966,0.13494019210338595,9.774686813354492,-0.9611309766769409,-0.016787739470601082,-0.009705294854938984,-0.00803606491535902
1706236332247749337,0.13290466368198398,9.777388572692873,-0.9668868184089662,-0.0074136266484856606,-0.008925260975956917,-0.007394118700176477
1706236332257751263,0.1253830045461655,9.763542175292969,-0.9696059823036195,0.0008766854298301041,-0.006172341760247946,-0.0034408224746584892
1706236332267943022,0.1198701784014702,9.764871597290039,-0.9653279781341553,0.0072888825088739395,-0.0027259401977062225,0.0025199472438544035
1706236332278042578,0.1106342077255249,9.768268585205078,-0.9742793440818788,0.011119136586785316,-4.7331344831036404e-05,0.008565418422222137
1706236332288033744,0.09434001892805101,9.773651123046875,-0.9678388237953187,0.011772832833230495,0.0009578158496879041,0.01304813101887703
1706236332298067263,0.0969415530562401,9.775365829467773,-0.9644662737846376,0.008955996483564377,0.00042954078526236117,0.015177560970187187
1706236332308949059,0.08768158406019212,9.766903877258303,-0.9642949104309082,0.0029359967447817326,-0.0007488260162062943,0.015209589153528214
1706236332328038096,0.10231242328882219,9.777031898498537,-0.9725844264030458,-0.014032317325472832,-0.0017208808567374945,0.013532930985093117
1706236332337614133,0.11013910174369812,9.783440589904787,-0.9630981683731079,-0.02140212431550026,-0.0006300347158685327,0.013900792226195335
1706236332347826281,0.12367081642150879,9.771617889404297,-0.9715913534164429,-0.025587260723114014,0.0014809563290327787,0.015047711320221424
1706236332358465152,0.14029531180858615,9.758463859558107,-0.981923282146454,-0.02538207359611988,0.0038915397599339485,0.016014210879802704
1706236332367365633,0.1417200416326523,9.76083278656006,-0.9756989479064941,-0.02042951062321663,0.0053781382739543915,0.0158087108284235
1706236332397512077,0.14683642983436584,9.772994041442873,-0.9728871583938599,0.009960507042706013,-0.0017783738439902663,0.0067756520584225655
1706236332427650244,0.09391841292381287,9.781055450439453,-0.965914249420166,0.02197035774588585,-0.006811717990785837,0.002008877694606781
1706236332467727744,0.09424974024295807,9.759115219116211,-0.9768678545951844,-0.00954445917159319,0.0075729102827608585,0.011389893479645252
1706236332526681077,0.14200253784656527,9.743583679199219,-0.9627889990806581,-0.014910695143043995,-0.001233658753335476,0.007507994305342436
1706236332528333003,0.14471447467803955,9.759780883789062,-0.9577053785324097,-0.006101115141063929,-0.006028152536600828,0.010326044633984566
1706236332538027781,0.12466884404420854,9.767538070678711,-0.9613307118415834,0.0038906435947865248,-0.010749793611466885,0.014287940226495266
1706236332548776707,0.11412987858057023,9.7685546875,-0.9547337889671327,0.012967481277883053,-0.014486037194728851,0.018208781257271767
1706236332558232485,0.11506490409374237,9.768560409545898,-0.9652330279350282,0.01878482848405838,-0.01615448109805584,0.02114916779100895
1706236332568182411,0.0963946133852005,9.766183853149414,-0.9603610038757324,0.019701801240444183,-0.015297715552151203,0.0226605162024498
1706236332577630392,0.08714035153388977,9.782068252563477,-0.9737761616706849,0.015436135232448578,-0.012374604120850563,0.022665653377771378
1706236332587620448,0.08449085056781769,9.776987075805664,-0.9714983701705933,0.006876664701849222,-0.008272120729088783,0.021269377321004868
1706236332598251929,0.0957096889615059,9.782408714294435,-0.9724290370941162,-0.0042780195362865925,-0.0037569839041680098,0.018686510622501373
1706236332607446133,0.0782335326075554,9.780374526977539,-0.9853534698486328,-0.015786508098244667,0.0006137466989457607,0.01526980847120285
1706236332620615207,0.0932513251900673,9.782057762145998,-0.9820915460586548,-0.02550812065601349,0.004405672196298838,0.01139567606151104
1706236332628750559,0.0944325551390648,9.76989269256592,-0.9757940769195557,-0.032080333679914474,0.0072651272639632225,0.007371893618255854
1706236332638093318,0.11426783353090288,9.77159309387207,-0.9799612760543823,-0.03493495658040047,0.008838861249387264,0.003624629694968462
1706236332647391837,0.13907894492149353,9.761132240295412,-0.9710189700126649,-0.0338454432785511,0.00878420751541853,0.0007563368417322636
1706236332657898892,0.14323201775550842,9.755043029785156,-0.9745821356773378,-0.02859988622367382,0.006909688003361225,-0.0007147951400838792
1706236332667366503,0.15414379537105563,9.754400253295898,-0.9845806360244751,-0.019231338053941727,0.003269132226705551,-0.0006697869393974543
1706236332677529670,0.15043957531452182,9.749661445617678,-0.9771941304206849,-0.006599226035177708,-0.0017773091094568372,0.00041012369911186397
1706236332688343170,0.14189928770065308,9.762495994567873,-0.9804447889328003,0.00738517427816987,-0.007493569981306791,0.0016625665593892336
1706236332697346985,0.12500171363353732,9.76145648956299,-0.9784789681434632,0.0200656671077013,-0.012785532511770725,0.0024049042258411646
1706236332708316077,0.10269610583782196,9.769561767578125,-0.9744202494621278,0.028619959950447083,-0.01644168049097061,0.0024539814330637455
1706236332719405855,0.09058155119419098,9.77293586730957,-0.9688494801521302,0.0307681392878294,-0.017575163394212723,0.002106071449816227
1706236332727737448,0.08054570853710175,9.771890640258789,-0.9656212329864502,0.0255219005048275,-0.01597427949309349,0.001979178050532937
1706236332738423596,0.06723809242248535,9.780678749084474,-0.9718956351280214,0.013645360246300697,-0.01215121615678072,0.002677308162674308
1706236332748315559,0.0662086009979248,9.775283813476562,-0.9711533784866333,-0.0025874602142721415,-0.007089681923389435,0.004352070391178131
1706236332757962874,0.05882977321743966,9.777307510375977,-0.9799371361732484,-0.020197495818138123,-0.001885904697701335,0.006515837740153074
1706236332767974040,0.07164371013641357,9.788449287414553,-0.9779875874519349,-0.03632047027349472,0.0025654484052211046,0.008283484727144241
1706236332778264577,0.08514240384101868,9.771236419677734,-0.9661667943000795,-0.04865469038486481,0.005822202190756798,0.008924962021410465
1706236332787561299,0.1050277277827263,9.755712509155273,-0.9759358167648315,-0.05552341789007187,0.007707038428634405,0.00839435774832964
1706236332797822355,0.12026452273130418,9.75672721862793,-0.9761217832565308,-0.05590265244245529,0.007788548711687326,0.007259544916450977
1706236332808211855,0.13126328587532043,9.751319885253906,-0.9813899397850038,-0.04964945837855339,0.005486620590090752,0.006069459021091461
1706236332818342003,0.1383988857269287,9.747970581054688,-1.0013726949691775,-0.03775133565068245,0.0007474339217878878,0.004860735032707453
1706236332827598077,0.14535011351108554,9.744263648986818,-1.0105829238891602,-0.02226174622774124,-0.005717056337743998,0.0030198090244084597
1706236332837657373,0.1488027572631836,9.744967460632326,-1.0151643753051758,-0.005781888030469418,-0.012775905430316925,-0.0004686325555667281
1706236332847623466,0.13311843574047091,9.744997978210451,-1.0321252346038818,0.009184368886053562,-0.01929439790546894,-0.0063743265345692635
1706236332858486392,0.11344852298498155,9.765574455261232,-1.023835062980652,0.020490720868110657,-0.024303264915943146,-0.014704858884215355
1706236332867434485,0.09370433539152147,9.764533042907717,-1.0016980171203613,0.026299163699150085,-0.026932908222079277,-0.024469662457704544
1706236332877404485,0.061150819063186646,9.788100242614748,-0.9680936932563783,0.025202546268701553,-0.026432374492287636,-0.03342573344707489
1706236332887804929,0.034310631453990936,9.792115211486818,-0.9442504644393921,0.016499029472470284,-0.022381404414772987,-0.03824849799275398
1706236332897866410,0.01364382915198803,9.791096687316896,-0.9389510154724121,0.00038503206451423466,-0.014941733330488205,-0.03576391562819481
1706236332907853910,0.02540198713541031,9.793164253234865,-0.9680595397949219,-0.02174486592411995,-0.005110294092446566,-0.024925503879785538
1706236332920609873,0.026061022654175762,9.764515876770021,-0.9902002215385438,-0.046911291778087616,0.005212123040109873,-0.008294160477817059
1706236332927642836,0.05357782542705536,9.764549255371094,-1.012094497680664,-0.07074163109064102,0.01351557020097971,0.00839998573064804
1706236332937782448,0.07294065505266191,9.75916385650635,-1.0312530994415283,-0.08852263540029526,0.017459968104958534,0.01874561794102192
1706236332950487614,0.09015294164419176,9.755775451660156,-1.0278338193893435,-0.09658465534448624,0.015974510461091995,0.01858462207019329
1706236332957515762,0.12470439821481706,9.759841918945312,-1.0273715257644656,-0.09336654096841812,0.009811332449316978,0.007738160900771618
1706236332967698318,0.13100537657737732,9.760448455810547,-0.9911478757858276,-0.07967168092727661,0.0011286163935437799,-0.009999772533774376
1706236332977729188,0.15229487419128418,9.752685546875,-0.9886476993560791,-0.05818913131952286,-0.007488839328289032,-0.028341785073280334
1706236332988080762,0.1628825068473816,9.73274326324463,-0.9712970852851869,-0.03267694637179375,-0.01420438289642334,-0.0409613698720932
1706236332997915892,0.1498366892337799,9.728016853332521,-0.9736157655715942,-0.007049453444778919,-0.018779784440994263,-0.0439983606338501
1706236333008015707,0.12546271085739136,9.746253967285156,-0.9790285229682923,0.015109442174434662,-0.02227049134671688,-0.037359558045864105
1706236333022200318,0.09898990392684937,9.781713485717773,-0.9798899292945863,0.03052627295255661,-0.025458352640271187,-0.024302635341882706
1706236333027411133,0.05427371338009835,9.75205707550049,-1.010120511054993,0.03639641031622887,-0.027620065957307816,-0.009844737127423286
1706236333037465596,0.041070733219385154,9.765948295593263,-1.0309967994689941,0.030973391607403755,-0.027339516207575798,0.0009460003348067403
1706236333047521410,0.02005047164857388,9.774060249328615,-1.0490697622299197,0.014368526637554169,-0.024159599095582962,0.004178252536803484
1706236333057833762,0.005206793546676636,9.78822994232178,-1.042787790298462,-0.010975919663906097,-0.01873070001602173,-0.0018411468481644988
1706236333068184799,-0.002593033481389284,9.80106830596924,-1.0542002916336062,-0.040828898549079895,-0.011829022318124771,-0.015917755663394928
1706236333119117521,0.14865259826183322,9.743635177612305,-1.0030826330184939,-0.10317087173461914,0.024440454319119453,-0.06779149174690247
1706236333138099040,0.17875760793685913,9.711544990539553,-0.9834567308425903,-0.08108425885438919,0.023015132173895836,-0.05749465525150299
1706236333138201429,0.16879270970821383,9.73692512512207,-1.0082974433898926,-0.050258900970220566,0.014887847937643528,-0.04346323758363724
1706236333147519096,0.17844468355178833,9.728487014770508,-0.9981561303138734,-0.015469050034880638,0.0007563428371213377,-0.029470965266227722
1706236333175328577,0.1552194058895111,9.740983963012695,-1.0087510347366335,0.017562594264745712,-0.016265466809272766,-0.01871032826602459
1706236333178624447,0.10273914039134979,9.779829978942873,-1.0194602012634277,0.057450614869594574,-0.04232301190495491,-0.012933931313455105
1706236333187387596,0.05805779993534088,9.781479835510256,-1.0149792432785036,0.057734377682209015,-0.04532739147543907,-0.01737511157989502
1706236333197494262,0.04179963096976281,9.82095718383789,-1.013899803161621,0.044419169425964355,-0.04012139514088631,-0.024448739364743233
1706236333208132929,0.025233795866370205,9.798637390136719,-0.9994799494743348,0.0201499592512846,-0.02748807705938816,-0.03166409209370613
1706236333223947540,0.02240709215402603,9.794553756713867,-0.994327485561371,-0.010635558515787125,-0.009899892844259739,-0.03667822852730751
1706236333234675299,0.03149595111608505,9.793905258178711,-0.9797641038894653,-0.042539339512586594,0.008637490682303905,-0.03786164149641991
1706236333251616892,0.0562308132648468,9.767915725708008,-0.9814556837081909,-0.07018455117940903,0.023715274408459663,-0.03464193642139435
1706236333251692447,0.07515897601842882,9.754779815673828,-0.9827214479446411,-0.08908886462450027,0.031959254294633865,-0.02765883319079876
1706236333261189207,0.09500408917665483,9.743644714355469,-0.9770717620849609,-0.09645270556211472,0.031767018139362335,-0.01861143484711647
1706236333270296318,0.11554180830717088,9.75987434387207,-0.9858922958374023,-0.09178426861763,0.0236420426517725,-0.009647424332797527
1706236333277546836,0.14340125024318698,9.750420570373537,-0.9749358296394349,-0.07685034722089767,0.010270420461893082,-0.002567532006651163
1706236333291916410,0.15790900588035583,9.76361083984375,-0.9823544025421143,-0.054814670234918594,-0.004287485498934984,0.0017224738840013742
1706236333297699058,0.15488328039646151,9.75717067718506,-0.9921317100524902,-0.029290437698364258,-0.016164671629667282,0.003247505985200405
1706236333308236892,0.14923739433288574,9.768632888793945,-0.9918580651283265,-0.003954221028834581,-0.022992437705397606,0.0024880950804799795
1706236333318874021,0.13082155585289001,9.756825447082521,-1.0059547424316406,0.017588449642062187,-0.024348657578229904,-7.839455793146044e-05
1706236333328205429,0.12147602438926697,9.758834838867188,-1.0042970180511475,0.032244570553302765,-0.021508490666747093,-0.00407849345356226
1706236333337532021,0.09660355001688005,9.753423690795898,-1.000742554664612,0.038104522973299026,-0.01675485447049141,-0.009105430915951729
1706236333343462225,0.08726622909307481,9.762870788574219,-0.9910680055618286,0.034870319068431854,-0.01238737441599369,-0.014432591386139393
1706236333358698744,0.07431447505950928,9.771634101867678,-0.986650049686432,0.023835813626646996,-0.009739118628203869,-0.01888607256114483
1706236333363279077,0.05692346766591073,9.776039123535156,-0.9770858287811279,0.007478168234229088,-0.008719942532479763,-0.021175842732191086
1706236333376476781,0.05652831122279168,9.775341033935547,-0.9693955779075624,-0.011269386857748032,-0.008226028643548489,-0.02041921578347683
1706236333386714447,0.05442475527524948,9.787154197692873,-0.9677265882492065,-0.029688408598303795,-0.007053696550428867,-0.016461383551359177
1706236333396674632,0.06181559339165688,9.789528846740724,-0.9731019139289857,-0.045549552887678146,-0.004493593703955412,-0.009979765862226486
1706236333406749484,0.08040182292461395,9.782111167907717,-0.9804068803787231,-0.05713878199458122,-0.000450456136604771,-0.0024489425122737885
1706236333416795484,0.1039930135011673,9.775384902954102,-0.9859480857849121,-0.06316617876291275,0.0044673727825284,0.004175479523837566
1706236333426721410,0.10908463597297668,9.76558017730713,-0.997445821762085,-0.06275741010904312,0.008955840952694416,0.008070690557360649
1706236333437256651,0.12605911493301392,9.759861946105959,-0.9885106086730957,-0.05583486333489418,0.011452795937657356,0.008193518035113811
1706236333468172281,0.16102434694767,9.749047279357912,-0.9756937623023988,-0.009142827242612839,0.0010694966185837984,-0.0073787495493888855
1706236333507299725,0.09024234861135484,9.770287513732912,-0.9669459462165834,0.03690893575549126,-0.018820734694600105,-0.007864234037697315
1706236333516543706,0.07800619304180145,9.777026176452638,-0.9628582596778871,0.032360516488552094,-0.017183508723974228,-0.0013668308965861797
1706236333526962873,0.06580436974763872,9.80030632019043,-0.9654935598373413,0.020618323236703873,-0.012776382267475128,0.005495910998433828
1706236333537184892,0.07352545857429504,9.78245258331299,-0.9809799194335938,0.003614129265770316,-0.0064597404561936855,0.011298074387013912
1706236333547374410,0.0660725086927414,9.787830352783203,-0.9763286709785463,-0.015492318198084831,0.0008550093043595552,0.014867179095745087
1706236333556504706,0.07055355608463287,9.775001525878906,-0.9747744798660278,-0.03314279019832611,0.00791887752711773,0.015536349266767502
1706236333566832188,0.08714086562395097,9.76960849761963,-0.9744582772254945,-0.046446312218904495,0.013216561637818813,0.013551086187362671
1706236333585700540,0.1086014434695244,9.768254280090334,-0.9751580953598022,-0.05364410951733589,0.015490486286580563,0.010038291104137897
1706236333598855892,0.13496527075767517,9.762146949768068,-0.956561028957367,-0.047578420490026474,0.010116632096469402,0.004095864482223988
1706236333607763225,0.14805951714515686,9.755422592163086,-0.9625832438468934,-0.03565525636076927,0.004231869243085384,0.0039243693463504314
1706236333616875632,0.1457972973585129,9.762495040893555,-0.9565818905830384,-0.020143436267971992,-0.002032733988016844,0.006171265617012978
1706236333627111429,0.14388790726661682,9.763838768005373,-0.9627572298049927,-0.003470978932455182,-0.0075363474898040295,0.010191927663981915
1706236333667749929,0.0835278183221817,9.77632808685303,-0.9707159996032715,0.024929845705628395,-0.01162672508507967,0.019513072445988655
1706236333679862762,0.07699446380138397,9.77599620819092,-0.9719237685203553,0.016077164560556412,-0.008557694964110851,0.01719566248357296
1706236333687493799,0.06913235038518907,9.782421112060547,-0.9720126390457153,0.0025679729878902435,-0.004558829590678215,0.014007149264216423
1706236333777422354,0.13184313476085666,9.744601249694826,-0.9749767184257508,-0.016530867666006088,-0.0012049085926264524,0.013609624467790127
1706236333826491854,0.08245639503002167,9.778665542602539,-0.965529203414917,0.012943853624165058,-0.019449664279818535,0.0066686165519058704
1706236333857396965,0.07208472490310669,9.78441905975342,-0.9587090611457826,-0.019388414919376373,-0.00554240308701992,0.004871797282248735
1706236333866744299,0.0806361809372902,9.77056884765625,-0.9667848348617554,-0.030178457498550415,0.0014701953623443842,0.008067676797509193
1706236333887353965,0.07937971502542497,9.759458541870117,-0.9818765521049501,-0.042201533913612366,0.009911791421473026,0.01528768427670002
1706236333896526188,0.09596008807420732,9.751686096191406,-0.9793877601623535,-0.04279628396034241,0.00900937058031559,0.016320833936333656
1706236333906689077,0.11060619354248047,9.751014709472656,-0.9764032363891602,-0.04047637805342674,0.004590918775647879,0.014571023173630238
1706236333916955577,0.12293683737516405,9.754737854003906,-0.977514684200287,-0.03592386096715927,-0.002209714613854885,0.01067335531115532
1706236333926932262,0.12801328301429749,9.755757331848146,-0.9788553118705751,-0.029404032975435257,-0.009678983129560947,0.006051450502127409
1706236333937027743,0.12086889147758484,9.760486602783203,-0.9804699420928955,-0.02114848420023918,-0.016032014042139053,0.002083658007904887
1706236333947178614,0.12506453692913058,9.745610237121584,-0.9780098795890809,-0.011969058774411678,-0.020028652623295784,-0.0004710467183031142
1706236333957132410,0.1075337678194046,9.755401611328125,-0.9730125069618226,-0.003351305378600955,-0.021466495469212532,-0.001493634656071663
1706236333967154465,0.10231281816959381,9.755409240722656,-0.974946677684784,0.002957231132313609,-0.021071480587124825,-0.0012030679499730468
1706236333977846928,0.09505479037761688,9.764195442199709,-0.9853464365005493,0.005501597188413143,-0.019771333783864975,-2.3445047645509476e-06
1706236333987055780,0.08233779668807983,9.770276069641115,-0.9848184585571289,0.0036308409180492163,-0.01805594377219677,0.0014248054940253496
1706236333997503762,0.08577407896518707,9.75779438018799,-0.9861294031143188,-0.002275212435051799,-0.015954967588186264,0.002215675078332424
1706236334006827002,0.06406725943088531,9.760136604309084,-0.9813560843467714,-0.011011174879968166,-0.013532832264900208,0.0018021516734734178
1706236334017272299,0.0761653333902359,9.753754615783693,-0.9955260753631592,-0.021035868674516678,-0.01127680204808712,0.00021823581482749432
1706236334026494558,0.08086501806974412,9.75845718383789,-0.9896407127380371,-0.030820196494460106,-0.009885705076158047,-0.0021409334149211645
1706236334036642076,0.08541429042816162,9.775007247924805,-0.9899049997329712,-0.038853585720062256,-0.009678207337856293,-0.004862254485487938
1706236334046678336,0.10590700060129167,9.763546943664553,-0.9930411577224731,-0.043732307851314545,-0.01019167248159647,-0.007544672582298517
1706236334057575169,0.10393334925174713,9.762857437133789,-0.9842682480812074,-0.0444774366915226,-0.010529538616538048,-0.009775567799806595
1706236334066808447,0.11505142599344255,9.755773544311523,-0.9881110191345215,-0.04087367281317711,-0.010220936499536037,-0.011199372820556164
1706236334076958576,0.12295161187648773,9.749017715454102,-0.9820631742477417,-0.03363748639822006,-0.00961886066943407,-0.011582797393202782
1706236334087363743,0.11326858401298523,9.753737449645998,-0.9758783578872681,-0.02421366050839424,-0.009547702036798,-0.01085740141570568
1706236334096852706,0.11879571527242662,9.759836196899414,-0.98906409740448,-0.014414333738386631,-0.01059858687222004,-0.009135969914495945
1706236334106881280,0.11686318367719652,9.760142326354982,-0.9866098165512085,-0.006021700333803892,-0.012584931217133999,-0.006838583387434483
1706236334116961651,0.1107216700911522,9.757813453674318,-0.9903108477592469,-0.0002833812322933227,-0.014667938463389874,-0.004745014011859894
1706236334127839262,0.09456884115934373,9.768590927124023,-0.9958407878875732,0.002269927179440856,-0.015972565859556198,-0.003672458231449127
1706236334166894262,0.06309176236391069,9.785825729370117,-0.9856616258621216,-0.019277144223451614,-0.008358879014849663,-0.01042507030069828
1706236334237458410,0.11310776323080064,9.758817672729492,-0.9743022918701172,-0.03345111757516861,-0.004745795391499996,-0.006311078555881977
1706236334247455262,0.10841403901576996,9.76488780975342,-0.9732640385627748,-0.021950116381049156,-0.008688504807651043,-0.004247624892741442
1706236334301380021,0.07360413670539856,9.779386520385742,-0.9771642088890077,-0.007911592721939087,-0.0034027511719614267,0.007012302987277508
1706236334307326947,0.06893326342105865,9.78478527069092,-0.9785184860229492,-0.015633389353752136,0.0011910033645108342,0.007530233822762966
1706236334317463299,0.07094289362430573,9.788166999816896,-0.9746818542480469,-0.0250067338347435,0.005172817502170801,0.007397464942187071
1706236334420054447,0.09156601130962372,9.796547889709474,-0.9553429484367372,-0.007731549441814423,0.011018120683729649,0.030786748975515366
1706236334567097206,0.11191891133785248,9.784061431884766,-0.9647201895713807,-0.0079573392868042,0.007557351607829332,0.024895820766687393
1706236334586627243,0.10290652513504028,9.78201675415039,-0.9610559940338135,-0.004583996254950762,0.008303288370370865,0.02131233736872673
1706236334597114076,0.09201277047395708,9.78369998931885,-0.9633832573890687,-0.005361307878047228,0.009755768813192844,0.019762907177209854
1706236334607252928,0.09131453931331635,9.774923324584961,-0.969622552394867,-0.007727024611085653,0.010834644548594952,0.018391279503703117
1706236334657020706,0.11550367623567583,9.76449489593506,-0.9845041036605835,-0.018539339303970337,0.0037837540730834007,0.008948990143835545
1706236334667021872,0.11402316391468048,9.763797760009766,-0.9843169450759888,-0.0159870907664299,0.0006071312818676233,0.0059789144434034824
1706236334677561817,0.11693940311670305,9.765156745910646,-0.9877448678016664,-0.012575129978358746,-0.0026314049027860165,0.00285282451659441
1706236334706658076,0.12378692626953125,9.756439208984375,-1.0156171321868896,-0.003077336121350527,-0.009479845874011517,-0.007149365730583668
1706236334716749558,0.12899316847324374,9.7520227432251,-1.0056757926940918,-0.001008418737910688,-0.011144233867526054,-0.011438228189945221
1706236334726711817,0.11815182119607927,9.748327255249023,-1.007779598236084,0.0008171703666448593,-0.012967517599463463,-0.016413604840636253
1706236334736967613,0.11649582535028459,9.744294166564943,-1.010031342506409,0.0025031198747456074,-0.015047631226480007,-0.02153797075152397
1706236334747292169,0.11752659827470781,9.738565444946289,-1.0208836793899538,0.003732762299478054,-0.017460625618696213,-0.026056446135044098
1706236334756928595,0.10358913242816925,9.744983673095703,-1.01112961769104,0.004003486596047878,-0.020264919847249985,-0.02956920862197876
1706236334767456243,0.11535845696926117,9.743287086486818,-1.011641025543213,0.0029690274968743324,-0.02332407608628273,-0.03209121897816658
1706236334777172965,0.09870438277721405,9.743978500366211,-1.0253291130065918,0.0006275997147895396,-0.02621244452893734,-0.03375780209898949
1706236334793340243,0.10923977196216583,9.750084877014162,-1.0254973173141482,-0.002665465697646141,-0.028393153101205826,-0.0348728783428669
1706236334799922761,0.10712121427059174,9.72880268096924,-1.0239492654800417,-0.006321234162896872,-0.02954423613846302,-0.0360150970518589
1706236334813427002,0.10721654444932939,9.739946365356445,-1.0242011547088623,-0.009639161638915539,-0.029873665422201157,-0.037669241428375244
1706236334828516724,0.11086651682853699,9.735918045043945,-1.0285232067108154,-0.011994889006018639,-0.030048608779907227,-0.039859622716903687
1706236334828590187,0.11822179704904558,9.733205795288086,-1.0276360511779785,-0.013019108213484287,-0.030655715614557266,-0.04227515310049057
1706236334837021854,0.11768858134746552,9.730177879333498,-1.0337044000625613,-0.012572533451020718,-0.03189237788319588,-0.04459546506404877
1706236334847908946,0.11285582184791565,9.72207546234131,-1.0281583070755007,-0.010756933130323887,-0.033740606158971786,-0.04665341600775719
1706236334857908169,0.10503603518009186,9.724461555480959,-1.029271960258484,-0.008113880641758442,-0.03617016226053238,-0.048375461250543594
1706236334867401724,0.11460623145103455,9.73490619659424,-1.0315933227539062,-0.005608932115137577,-0.039050374180078506,-0.049673303961753845
1706236334887677983,0.1015939861536026,9.728859901428224,-1.0274556875228884,-0.0037909653037786484,-0.043742015957832336,-0.050761617720127106
1706236334936829724,0.08099623024463654,9.746758460998537,-1.021642088890076,-0.019263505935668945,-0.03288751468062401,-0.04953538253903389
1706236334967125113,0.09380165487527849,9.735950469970703,-1.014989495277405,-0.032732002437114716,-0.027003949508070946,-0.04693181812763214
1706236334977053557,0.08440569043159485,9.758219718933107,-1.0033491849899294,-0.03426722064614296,-0.026577617973089218,-0.04444573074579239
1706236334996507317,0.1005004495382309,9.763971328735352,-0.995843768119812,-0.03192436322569847,-0.025393666699528694,-0.03708435967564583
1706236335007302965,0.08627147227525712,9.766642570495607,-0.9983803033828735,-0.02936975099146366,-0.023109056055545807,-0.03273811936378479
1706236335017522650,0.08830757439136505,9.756184577941896,-0.996644675731659,-0.026816867291927338,-0.01935659348964691,-0.028342878445982933
1706236335027208354,0.09773889183998108,9.76833248138428,-0.9878537654876709,-0.024984005838632584,-0.014905719086527824,-0.02417921833693981
1706236335036798743,0.08601468056440355,9.766609191894531,-0.9809078574180604,-0.024274487048387527,-0.010832006111741066,-0.020386457443237305
1706236335046714743,0.09436200559139252,9.773726463317873,-0.9749289751052856,-0.02456306852400303,-0.007785269059240818,-0.016774408519268036
1706236335056946298,0.0900307148694992,9.783522605895998,-0.9723643064498901,-0.02544134482741356,-0.005682772025465965,-0.012917506508529186
1706236335067069946,0.08342118561267853,9.779788970947266,-0.9721204638481141,-0.0265043918043375,-0.003886193735525012,-0.008516674861311913
1706236335077394576,0.08336688578128815,9.78584957122803,-0.9675039052963257,-0.02757694013416767,-0.001674594939686358,-0.0036647573579102755
1706236335087595131,0.07059026509523393,9.779067039489748,-0.9564040303230287,-0.028828011825680733,0.0012546251527965069,0.0012674008030444384
1706236335096570372,0.07651816308498383,9.78990364074707,-0.9640205502510072,-0.030635135248303413,0.004650695715099573,0.0059737954288721085
1706236335126991613,0.08673956245183946,9.794243812561037,-0.9542891979217529,-0.039740171283483505,0.01450416911393404,0.017190827056765556
1706236335136924724,0.09091704338788988,9.782428741455078,-0.9472017884254457,-0.041910067200660706,0.017408153042197227,0.01980213075876236
1706236335147130446,0.08596867322921753,9.792203903198242,-0.9404202699661255,-0.042198847979307175,0.019578509032726288,0.02219412848353386
1706236335157627576,0.09133592247962952,9.784096717834474,-0.9428964853286743,-0.040428970009088516,0.02055899053812027,0.024749306961894035
1706236335166914280,0.09318997710943223,9.795557022094727,-0.9335670471191406,-0.03717251121997833,0.02029992640018463,0.027762101963162422
1706236335176629372,0.09046129137277605,9.786104202270508,-0.9338991641998291,-0.03334709629416466,0.019234612584114075,0.03129357472062111
1706236335186909928,0.08548508584499359,9.79521369934082,-0.9355881214141846,-0.02984069101512432,0.01802118495106697,0.03517694026231766
1706236335197321872,0.0821678712964058,9.796545982360842,-0.9272242784500122,-0.027410689741373062,0.017244767397642136,0.03907177969813347
1706236335207076483,0.08154675364494324,9.79589366912842,-0.9304050207138062,-0.026596974581480026,0.01729700155556202,0.04261033236980438
1706236335217528705,0.0748247504234314,9.800933837890625,-0.9246854186058046,-0.027560213580727577,0.018317734822630882,0.045590419322252274
1706236335227847835,0.08198428153991699,9.797550201416016,-0.9330933690071107,-0.030020907521247864,0.02015572227537632,0.04797467961907387
1706236335236492372,0.07553332298994066,9.785737037658693,-0.9295743703842163,-0.03333529829978943,0.022366922348737717,0.049729764461517334
1706236335247395854,0.08936081081628801,9.800574302673342,-0.9223921298980713,-0.03664638474583626,0.024259833618998528,0.050805456936359406
1706236335257784872,0.09361710399389268,9.788446426391602,-0.9413318634033203,-0.03903094306588173,0.025220507755875587,0.05126370117068291
1706236335267175409,0.09767351299524309,9.784363746643068,-0.9379815459251405,-0.0396418422460556,0.02503580041229725,0.05115056037902832
1706236335277935039,0.08815795928239824,9.792829513549805,-0.9389592409133911,-0.038051292300224304,0.023797528818249702,0.05029500648379326
1706236335306649761,0.10181807726621629,9.787410736083984,-0.9437405467033387,-0.026610117405653,0.017556119710206985,0.04357988387346268
1706236335316728650,0.10619476437568665,9.789432525634766,-0.9386708140373231,-0.02356434054672718,0.01588451862335205,0.04105599969625473
1706236335327807965,0.10510891675949097,9.775270462036133,-0.9402565956115723,-0.021242810413241386,0.014648271724581718,0.03893500939011574
1706236335337499742,0.10892378538846971,9.798892974853516,-0.9417033791542054,-0.019250456243753433,0.013842887245118618,0.037541940808296204
1706236335346724187,0.08819246292114258,9.775590896606445,-0.9446812868118286,-0.01735658384859562,0.013416984118521214,0.03699681907892227
1706236335356976520,0.0888461023569107,9.77556896209717,-0.9462749361991883,-0.01588791236281395,0.013251318596303463,0.03705151379108429
1706236335367246335,0.09366285800933838,9.785051345825195,-0.9518328309059144,-0.015619872137904167,0.01298488862812519,0.03719137981534004
1706236335377219891,0.09290526807308197,9.776947975158693,-0.9549511671066284,-0.017032604664564133,0.01224620919674635,0.0368494838476181
1706236335387295390,0.08759935945272447,9.77899169921875,-0.9605236053466797,-0.019794439896941185,0.011032618582248688,0.035582467913627625
1706236335403129928,0.0854274407029152,9.775588989257812,-0.9542299509048462,-0.023100798949599266,0.009587686508893967,0.03322629630565643
1706236335406686687,0.08768577873706818,9.776618003845217,-0.9633438587188721,-0.02626057341694832,0.008130830712616444,0.03001757711172104
1706236335416808798,0.09774193167686462,9.771887779235842,-0.9607961177825928,-0.028821738436818123,0.006779714487493038,0.02649042382836342
1706236335426708298,0.10263125598430634,9.778283119201662,-0.9578990936279297,-0.030332857742905617,0.005566413514316082,0.023204071447253227
1706236335436553409,0.09825320541858673,9.773918151855469,-0.9702642560005189,-0.030302507802844048,0.004521077964454889,0.020560666918754578
1706236335446690131,0.10688728839159013,9.767504692077638,-0.9741249680519105,-0.02853933349251747,0.0036833451595157385,0.0186147578060627
1706236335456725205,0.11213920265436174,9.759737968444826,-0.968055248260498,-0.025337418541312218,0.0029037788044661283,0.01698067970573902
1706236335469221168,0.11407736688852312,9.769872665405273,-0.977557897567749,-0.021215520799160004,0.001779950107447803,0.015174304135143757
1706236335478052427,0.10484232008457184,9.758048057556154,-0.9745149016380311,-0.016713587567210197,2.1682080841856077e-06,0.012991189025342464
1706236335488778742,0.10196670144796373,9.761795043945312,-0.9858124256134033,-0.01253063790500164,-0.002372556133195758,0.01046707946807146
1706236335497030520,0.10497315227985382,9.759397506713867,-0.9759133458137513,-0.009534820914268494,-0.005048349965363741,0.0077026765793561935
1706236335508574576,0.09790630638599396,9.759753227233888,-0.9828213453292847,-0.008367993868887424,-0.007673356216400862,0.004872727673500776
1706236335517261724,0.1102271005511284,9.759087562561037,-0.9917089939117432,-0.009057377465069294,-0.00992349162697792,0.0022179270163178444
1706236335528150279,0.10620003938674927,9.758385658264162,-0.9823812246322632,-0.010957201011478901,-0.0115922000259161,-0.00015668553533032537
1706236335536689094,0.09626064449548723,9.75433349609375,-0.9843154549598695,-0.013085267506539822,-0.012663617730140686,-0.002278982661664486
1706236335546963279,0.09795355051755907,9.761444091796875,-0.9922964572906494,-0.014773826114833355,-0.013297590427100658,-0.004093280527740717
1706236335557666446,0.08619026094675065,9.7533655166626,-1.0012445449829102,-0.01605512760579586,-0.013694657012820244,-0.005604322999715805
1706236335567566464,0.11165843158960344,9.75405025482178,-0.9935314059257508,-0.017338654026389122,-0.014014162123203278,-0.007138661574572325
1706236335577229150,0.11638914048671722,9.752386093139648,-1.007120728492737,-0.018638674169778824,-0.014431283809244633,-0.009132635779678822
1706236335587523168,0.11889932304620744,9.756781578063967,-1.0134897232055664,-0.019162192940711975,-0.015092987567186356,-0.01184150017797947
1706236335596967576,0.116758331656456,9.746986389160156,-1.0074360370635986,-0.017898283898830414,-0.015994621440768242,-0.015362615697085857
1706236335606650279,0.11082034558057786,9.74998664855957,-1.0086936950683594,-0.014605742879211903,-0.017056060954928398,-0.01955176703631878
1706236335627212335,0.12580052018165588,9.752720832824709,-1.0170395374298096,-0.0055497209541499615,-0.019289713352918625,-0.027696313336491585
1706236335636859816,0.10820341110229492,9.751706123352053,-1.0090707540512087,-0.0018204724183306098,-0.01996767520904541,-0.030670028179883957
1706236335646792353,0.11452363431453705,9.752071380615234,-1.0198228359222412,0.000646161672193557,-0.020112615078687668,-0.03274671360850334
1706236335656936464,0.10737118124961853,9.746022224426271,-1.0249342918395996,0.0015138720627874136,-0.01991395838558674,-0.034095365554094315
1706236335666687650,0.1049269661307335,9.74332046508789,-1.0280380249023438,0.0006579065811820328,-0.019784772768616676,-0.03519285470247269
1706236335676640557,0.11002644896507263,9.74229621887207,-1.0302277803421023,-0.0016680292319506407,-0.02019421011209488,-0.03669305518269539
1706236335688729298,0.10069938004016876,9.746011734008789,-1.0263432264328005,-0.0048705958761274815,-0.02142164669930935,-0.0390053428709507
1706236335697825501,0.10219040513038635,9.748388290405273,-1.0272337198257449,-0.008249136619269848,-0.023311425000429153,-0.04199492931365967
1706236335706830298,0.10657229274511339,9.749059677124023,-1.0228904485702517,-0.011270078830420971,-0.025281177833676338,-0.04504577815532684
1706236335717147020,0.10939320921897888,9.741634368896484,-1.023935675621033,-0.013566199690103531,-0.02668073959648609,-0.04739711806178093
1706236335727606909,0.1066352352499962,9.763910293579102,-1.0208538770675661,-0.014827851206064224,-0.027154725044965744,-0.048506785184144974
1706236335737617094,0.1066041886806488,9.75042247772217,-1.0196355581283572,-0.014937132596969604,-0.026588305830955505,-0.048238012939691544
1706236335747763242,0.10732900351285936,9.761566162109375,-1.0233870744705202,-0.014133566990494728,-0.02495812065899372,-0.04684620350599289
1706236335757916964,0.10820664465427399,9.76192378997803,-1.0265607833862305,-0.012899293564260006,-0.022423315793275833,-0.04489797353744507
1706236335767438335,0.10107428580522539,9.756169319152834,-1.0164873600006104,-0.011723353527486324,-0.019354198127985,-0.0430937185883522
1706236335776819335,0.10074623674154283,9.750105857849123,-1.0162988901138308,-0.011025050655007362,-0.016314204782247543,-0.04187224432826042
1706236335788912724,0.10272955894470215,9.752809524536133,-1.024226188659668,-0.011123132891952991,-0.014054765924811363,-0.041181400418281555
1706236335798248557,0.09585697948932648,9.756826400756836,-1.0083628892898562,-0.012100239284336567,-0.013186866417527199,-0.04072500020265579
1706236335807191427,0.09549708664417267,9.760549545288086,-1.0058767795562744,-0.01379010546952486,-0.013698630034923553,-0.04015110433101654
1706236335817336538,0.09336043149232866,9.760551452636719,-1.0058414936065674,-0.015947038307785988,-0.014895198866724968,-0.038992367684841156
1706236335826708279,0.08670292049646379,9.767970085144045,-0.9955343604087831,-0.018366556614637375,-0.01582014374434948,-0.036832574754953384
1706236335837306724,0.07917408645153046,9.757833480834961,-0.992880403995514,-0.020974408835172653,-0.015759792178869247,-0.03353923559188843
1706236335847351927,0.07756092399358751,9.784841537475586,-0.9958455562591553,-0.023901959881186485,-0.014475137926638126,-0.02927088364958763
1706236335863728372,0.07738620787858964,9.776059150695803,-0.9931748509407045,-0.027340585365891457,-0.011993511579930782,-0.024485426023602486
1706236335873065612,0.08078105002641679,9.773368835449219,-0.9832650423049927,-0.031222274526953697,-0.008409472182393074,-0.019840015098452568
1706236335877880779,0.07450833916664124,9.787190437316896,-0.9898194074630737,-0.03509923443198204,-0.004083097446709871,-0.01582906022667885
1706236335887846094,0.07916643470525743,9.781427383422852,-0.98360276222229,-0.0383930541574955,0.0003733099438250065,-0.012599633075296879
1706236335948308872,0.08040402084589006,9.784452438354492,-0.9662414193153382,-0.03198093920946121,0.007952136918902397,0.0055254073813557625
1706236335960041372,0.08470747619867326,9.778034210205078,-0.9647170305252075,-0.0297028049826622,0.006666488945484161,0.009502746164798737
1706236335967860649,0.07833315432071686,9.792212486267092,-0.9628260731697084,-0.028927601873874664,0.006217906717211008,0.01292673870921135
1706236335977981131,0.07954809069633484,9.778369903564453,-0.9691454172134399,-0.029738130047917366,0.0068007963709533215,0.015339674428105354
1706236335992114946,0.07668913155794145,9.783441543579102,-0.9713389873504639,-0.03180776908993721,0.008214087225496769,0.016500968486070633
1706236335999870298,0.09200936555862427,9.788841247558594,-0.9677600860595703,-0.034493885934352875,0.009947769343852997,0.01637091487646103
1706236336007753112,0.08715570718050004,9.777372360229492,-0.9738340973854066,-0.03688748553395271,0.011481170542538166,0.015142229385674
1706236336020100464,0.08268005400896074,9.77940082550049,-0.9782450199127197,-0.03809551149606705,0.012460046447813511,0.013196711428463459
1706236336032147964,0.09634115546941759,9.774337768554688,-0.9797269701957704,-0.03774343803524971,0.012606273405253887,0.010865572839975357
1706236336037386983,0.09732425212860107,9.775022506713867,-0.9778987765312196,-0.03601590171456337,0.011749067343771458,0.00832493044435978
1706236336046739760,0.08978015184402466,9.772308349609375,-0.9766035079956055,-0.033294498920440674,0.009961974807083607,0.005761642009019852
1706236336056806057,0.0996236801147461,9.775708198547365,-0.9928798079490663,-0.03007352538406849,0.007577729411423206,0.0034224067348986864
1706236336066932575,0.10910616070032121,9.775020599365234,-0.9807806611061097,-0.026880472898483276,0.005104589741677046,0.0013781614834442735
1706236336076839205,0.10438874363899231,9.763560295104982,-0.9901083111763002,-0.023917004466056824,0.003018188988789916,-0.000528925855178386
1706236336088637909,0.10451730340719224,9.755823135375977,-0.9960734248161317,-0.02105897106230259,0.0013916658936068416,-0.0024706325493752956
1706236336097450168,0.1082552969455719,9.760196685791016,-1.0020167827606201,-0.01826576329767704,-0.00025287544121965766,-0.004635046701878309
1706236336117464594,0.10191049426794054,9.75448513031006,-1.0194798707962038,-0.013598181307315826,-0.005581555422395468,-0.010730623267591
1706236336127753538,0.09502234309911729,9.75918960571289,-0.993602991104126,-0.012205063365399837,-0.009140444919466972,-0.014934396371245384
1706236336136921816,0.09778457134962083,9.744377136230469,-1.0083776712417605,-0.011884606443345547,-0.012623255141079426,-0.01949252560734749
1706236336147617334,0.0933309942483902,9.755165100097656,-1.0111194849014284,-0.012885557487607002,-0.015576143749058247,-0.02356688864529133
1706236336157915112,0.08598684519529344,9.745381355285646,-1.0230056047439577,-0.015126285143196583,-0.0178694985806942,-0.026589849963784218
1706236336166929612,0.07947780191898346,9.754510879516602,-1.0066983699798584,-0.018324561417102814,-0.019572654739022255,-0.028734704479575157
1706236336176703909,0.08386563509702684,9.753835678100586,-1.0111656188964844,-0.022223256528377533,-0.02073677070438862,-0.030439969152212143
1706236336187678742,0.08926919847726823,9.743651390075685,-0.9820358753204346,-0.02647702768445015,-0.02135414443910122,-0.03165845200419426
1706236336197516316,0.08182417601346971,9.746034622192383,-0.9762828946113588,-0.030453775078058243,-0.021565400063991547,-0.03157743811607361
1706236336207646797,0.08444026857614519,9.761556625366211,-0.9729453325271606,-0.03346744179725647,-0.021688902750611305,-0.02899973653256893
1706236336217475594,0.07355166971683502,9.766273498535156,-0.9609026908874512,-0.0352540984749794,-0.021734200417995453,-0.023215249180793762
1706236336228210834,0.07195912301540375,9.765251159667969,-0.9514283537864686,-0.03617076203227043,-0.021130625158548355,-0.014533590525388718
1706236336237197131,0.06537996977567674,9.756472587585451,-0.9592704772949219,-0.03700483590364456,-0.019300809130072594,-0.0040583438239991665
1706236336247767705,0.06696911901235582,9.769307136535646,-0.9551001787185669,-0.03854256495833397,-0.016357503831386566,0.006682845298200846
1706236336256998131,0.04893067479133606,9.772974014282227,-0.9338156580924989,-0.041218239814043045,-0.012958133593201637,0.01616407185792923
1706236336267222464,0.06332935392856598,9.791133880615234,-0.8962817192077637,-0.045075174421072006,-0.009541765786707401,0.023802993819117546
1706236336277293186,0.07628474384546281,9.778326034545898,-0.9033907055854798,-0.04967112094163895,-0.00595129793509841,0.030678335577249527
1706236336289788223,0.08639999479055406,9.789775848388672,-0.8880245685577393,-0.05379500612616539,-0.001848971238359809,0.038734275847673416
1706236336297729853,0.10118625313043596,9.796184539794922,-0.8944319486618042,-0.05566567927598953,0.0027786551509052515,0.049080222845077515
1706236336306754408,0.1053324118256569,9.770868301391602,-0.8992852568626405,-0.05376251041889191,0.007571140304207802,0.061115145683288574
1706236336326874242,0.135910376906395,9.785730361938477,-0.9231346845626831,-0.03817472234368324,0.014318322762846947,0.08095554262399673
1706236336336895797,0.11157573014497758,9.77088737487793,-0.9310234189033509,-0.026893949136137962,0.01469544880092144,0.08343140780925751
1706236336346919742,0.12529787421226501,9.783349990844727,-0.9241758584976196,-0.015490294434130192,0.013207763433456421,0.07971302419900894
1706236336357871797,0.12225422263145447,9.797513961791992,-0.9124014377593994,-0.005581745412200689,0.010796037502586842,0.07168789952993393
1706236336367589834,0.11404160410165788,9.792071342468263,-0.8980088829994203,0.001610347768291831,0.008804167620837688,0.06273777037858963
1706236336377649297,0.11158705502748491,9.79104518890381,-0.8957059979438783,0.0055260686203837395,0.00849433708935976,0.05643855780363083
1706236336392021927,0.0997702032327652,9.785981178283693,-0.8863989114761353,0.006140762008726597,0.010236226953566074,0.05522211268544197
1706236336397572612,0.10979296267032623,9.790027618408203,-0.894069015979767,0.0038410488050431013,0.013287153095006943,0.059524182230234146
1706236336407639371,0.08384311199188232,9.786679267883303,-0.9126548767089844,-0.0006092354306019843,0.01640140824019909,0.06771194189786911
1706236336417645464,0.07261110842227936,9.793461799621584,-0.9368537068367006,-0.006422869861125946,0.01859859749674797,0.07654870301485062
1706236336426815760,0.0819816142320633,9.777288436889648,-0.9520450830459595,-0.013227338902652264,0.019499419257044792,0.08212495595216751
1706236336437388149,0.09833801537752153,9.779002189636232,-0.9786125421524048,-0.02067837119102478,0.019109874963760376,0.08120158314704895
1706236336447444686,0.09562993049621582,9.782706260681154,-0.9711414575576782,-0.027653906494379044,0.017533622682094574,0.07242284715175629
1706236336457990019,0.11046817898750305,9.778317451477053,-0.9746833443641664,-0.032408587634563446,0.015058956108987331,0.05693161115050316
1706236336467342038,0.11371051520109178,9.780332565307617,-0.9659712910652162,-0.03353245183825493,0.012250294908881187,0.038124073296785355
1706236336477403427,0.12038784474134447,9.775943756103516,-0.972926139831543,-0.03060292638838291,0.009702476672828197,0.020368333905935287
1706236336487809760,0.12097664922475816,9.773225784301758,-0.9651945233345033,-0.024269478395581245,0.007743713445961475,0.007246154826134443
1706236336497055353,0.12869605422019958,9.767840385437013,-0.9692198634147645,-0.01595950499176979,0.006311767268925905,0.00038613483775407076
1706236336507639501,0.13094384968280795,9.770523071289062,-0.9591327309608461,-0.007302835583686829,0.005045870319008827,-0.0006038149003870785
1706236336528001371,0.12537823617458346,9.747573852539062,-0.9584379196166992,0.0003943583578802645,0.003482932224869728,0.002609183080494404
1706236336528093260,0.11718647927045824,9.759407043457031,-0.961201846599579,0.006248957477509975,0.0011404528049752116,0.007988635450601578
1706236336537108556,0.10965799540281297,9.75472927093506,-0.9897084832191468,0.009608175605535507,-0.002292961347848177,0.013546324335038662
1706236336557425890,0.09471994638442993,9.771962165832521,-1.009537696838379,0.007009894121438265,-0.01047456357628107,0.017144566401839256
1706236336566807964,0.08364028483629228,9.760503768920898,-1.0188235044479372,0.0009852531366050243,-0.012847323901951313,0.012161783874034882
1706236336576812390,0.07954231649637224,9.78072738647461,-0.9999099969863892,-0.007277449127286673,-0.01293490082025528,0.0027001674752682447
1706236336595734019,0.08169636875391008,9.773630142211914,-1.0071765184402468,-0.016514066606760025,-0.010903092101216316,-0.009211390279233456
1706236336597412945,0.07108076661825181,9.77022933959961,-0.9830920100212098,-0.025413958355784416,-0.007430091965943575,-0.02049875445663929
1706236336606885149,0.09350173920392992,9.771546363830568,-0.9744088053703309,-0.032881300896406174,-0.00347983930259943,-0.02810976840555668
1706236336620226093,0.10175112634897233,9.75973415374756,-0.9765084981918335,-0.037987321615219116,-0.0001662612776271999,-0.030009521171450615
1706236336627947260,0.09494637697935106,9.758054733276367,-0.9654667377471924,-0.03988150879740715,0.001528809778392315,-0.025877820327878
1706236336637390371,0.11665856838226318,9.756751060485842,-0.9779006242752075,-0.038168758153915405,0.00102154107298702,-0.017227675765752792
1706236336654624056,0.09644682705402374,9.743574142456055,-0.9863693118095399,-0.03332129493355751,-0.0017072245245799422,-0.006829021964222193
1706236336657608705,0.10322955250740051,9.74900531768799,-0.9813565015792847,-0.0266597718000412,-0.0061876289546489716,0.0022117244079709053
1706236336667906242,0.09953804314136505,9.766912460327148,-1.0026427507400515,-0.02001667022705078,-0.011565775610506535,0.007482570596039295
1706236336679821649,0.07836061716079712,9.770280838012695,-0.9966421127319336,-0.015161292627453804,-0.016466189175844193,0.007937842048704624
1706236336690433353,0.0741681456565857,9.777353286743164,-0.9977857470512391,-0.01341347023844719,-0.019188130274415016,0.003956407308578491
1706236336697287982,0.07564709335565568,9.78913688659668,-0.9891794323921205,-0.01547454297542572,-0.01846831850707531,-0.002859656233340502
1706236336727778056,0.07597198337316514,9.777316093444826,-0.9827925562858583,-0.03731118142604828,0.0015070015797391534,-0.017582206055521965
1706236336737844649,0.08578526228666307,9.759740829467773,-0.9639488458633423,-0.044243186712265015,0.008876214735209942,-0.01614902727305889
1706236336767321612,0.10579439997673035,9.749991416931154,-0.9743923544883729,-0.045373931527137756,0.008749580942094326,0.0009060408337973058
1706236336777560223,0.09132368117570878,9.763490676879883,-0.9770034551620483,-0.03975328058004379,0.0010970276780426502,0.00680115632712841
1706236336789080297,0.09539439529180528,9.772988319396974,-0.9923317432403564,-0.03312281519174576,-0.007469844538718462,0.01054462417960167
1706236336800084186,0.09776749461889268,9.783446311950685,-0.9954209327697754,-0.0269811749458313,-0.014184154570102692,0.011199877597391605
1706236336807791334,0.08679746091365814,9.780403137207031,-1.0042827129364014,-0.02251339703798294,-0.01678013801574707,0.008423680439591408
1706236336816782130,0.08961696177721025,9.776337623596193,-1.001730561256409,-0.02031954750418663,-0.014522983692586422,0.0026161661371588707
1706236336827260093,0.08442120254039764,9.782735824584961,-1.0052553415298464,-0.020447377115488052,-0.008531694300472736,-0.005088930483907461
1706236336857350501,0.08745110034942627,9.761803627014162,-0.9800221920013428,-0.028835082426667213,0.009216728620231152,-0.02400820702314377
1706236336870077779,0.08899359405040741,9.75810432434082,-0.9829941987991333,-0.03125416114926338,0.00936116836965084,-0.024687988683581352
1706236336876809278,0.0852569565176964,9.752359390258789,-0.9803128242492676,-0.0324338860809803,0.006025063339620829,-0.02184372954070568
1706236336886911575,0.08864127099514008,9.747673034667969,-0.9928976893424989,-0.03250795975327492,0.00019934415468014777,-0.01647057943046093
1706236336907082427,0.0944187194108963,9.764590263366701,-1.0072546005249023,-0.030968504026532173,-0.013129373081028461,-0.005749827716499567
1706236336917626186,0.09525427222251892,9.770326614379883,-1.018203377723694,-0.02977614849805832,-0.01746070571243763,-0.004096624907106161
1706236336928168427,0.09461257606744768,9.770336151123047,-1.0239676237106325,-0.028330763801932335,-0.018653715029358864,-0.006342790555208921
1706236336941094723,0.1014682948589325,9.76457405090332,-1.0170329809188845,-0.02670581080019474,-0.016681291162967682,-0.01240331307053566
1706236336957593797,0.09486037492752075,9.750406265258789,-1.015953779220581,-0.023539194837212563,-0.008145018480718136,-0.029752925038337708
1706236336966864112,0.09661381691694261,9.76422119140625,-0.9990601539611816,-0.022499972954392433,-0.0050307693891227245,-0.0363902822136879
1706236336977621390,0.10866647213697435,9.766572952270508,-0.9876413345336914,-0.022012313827872276,-0.004198942333459854,-0.03935566544532776
1706236336988523575,0.10748617351055145,9.732824325561523,-0.9770443439483643,-0.02168962173163891,-0.0054983231239020824,-0.038037173449993134
1706236336997060778,0.09954534471035004,9.755781173706055,-0.98606675863266,-0.020896922796964645,-0.008330108597874641,-0.03263098746538162
1706236337019930723,0.09100191295146942,9.76830577850342,-1.0003610849380495,-0.01776307262480259,-0.016230914741754532,-0.015674149617552757
1706236337026879501,0.09822656959295274,9.762246131896974,-1.0111993551254275,-0.016849931329488754,-0.0192152988165617,-0.009237654507160187
1706236337043689797,0.09096484631299974,9.764253616333008,-1.0048309564590456,-0.017223259434103966,-0.020036177709698677,-0.006968122441321611
1706236337048778149,0.09790632128715515,9.766970634460451,-1.0176942348480225,-0.018770115450024605,-0.01846298947930336,-0.009178172796964645
1706236337057299927,0.10865440219640733,9.774378776550295,-0.9967641234397889,-0.020825160667300224,-0.015117915347218513,-0.01468739565461874
1706236337067455130,0.10650372505187988,9.762207984924318,-0.9891061186790467,-0.022387361153960228,-0.010966205038130283,-0.02130090445280075
1706236337077221964,0.10228628665208818,9.76422119140625,-0.9878254532814027,-0.022546939551830292,-0.0070047322660684586,-0.026437250897288322
1706236337086977686,0.12191668152809143,9.75411128997803,-0.9851826429367065,-0.02099572867155075,-0.0041979835368692875,-0.028099603950977325
1706236337098022149,0.11093378812074663,9.757789611816406,-0.9703016877174379,-0.01799926906824112,-0.0032804924994707108,-0.025687238201498985
1706236337106926667,0.11051527410745622,9.757476806640625,-0.9700699448585511,-0.014101684093475342,-0.004444221034646034,-0.019875887781381607
1706236337117132519,0.11358855664730072,9.763215065002443,-0.972811222076416,-0.010086857713758945,-0.007164134178310633,-0.01199961919337511
1706236337127437871,0.11213967949151994,9.764246940612795,-0.9773980975151063,-0.006800079718232155,-0.010345567017793655,-0.0036967690102756023
1706236337137187464,0.10506445169448853,9.77536392211914,-0.9751465320587158,-0.00478730071336031,-0.012738073244690895,0.00334760919213295
1706236337147314686,0.11461968719959259,9.779076576232912,-0.9800158739089966,-0.0041946773417294025,-0.013324358500540257,0.007879961282014847
