Timestamp,IMU_Raw_x,IMU_Raw_y,IMU_Raw_z,IMU_Linear_Acc_X,IMU_Linear_Acc_Y,IMU_Linear_Acc_Z
1706237847880974799,0.126363679766655,9.767003059387209,-0.9929592013359071,-0.004764471668750048,-0.003113505197688937,0.009987645782530308
1706237847887637502,0.13188347220420837,9.764294624328615,-0.9850401282310487,-0.0047650570049881935,-0.0015419436385855079,0.010773132555186749
1706237847897719799,0.12243576347827911,9.766654968261719,-0.9894031882286073,-0.004004141315817833,3.930459115508711e-06,0.011217374354600906
1706237847907805336,0.12853378057479858,9.769039154052734,-0.9967519640922547,-0.0025880998000502586,0.0009063201723620296,0.011358801275491714
1706237847917223984,0.1302071213722229,9.77004909515381,-0.9981656670570375,-0.0008778644260019064,0.0009866297477856278,0.011158338747918606
1706237847927806095,0.12648609280586243,9.763285636901857,-0.9859461188316346,0.0007356443675234914,0.0005130614154040813,0.010450383648276329
1706237847937186799,0.11870481818914415,9.768035888671875,-0.9894084334373475,0.001963467337191105,-0.00015381697448901832,0.009317978285253048
1706237847948968669,0.12271060049533844,9.762636184692383,-0.9946255087852479,0.002500726142898202,-0.0008217187714762986,0.008233999833464622
1706237847957919428,0.13123050332069397,9.771051406860352,-0.9921415448188783,0.0021432822104543447,-0.0014274220447987318,0.0076168496161699295
1706237847968535965,0.12372693419456482,9.76971435546875,-1.0005059242248535,0.0011217610444873571,-0.0018730442970991135,0.0074498713947832584
1706237847978008873,0.1323489993810654,9.772403717041016,-0.9866794347763062,4.8110003262991086e-05,-0.0019573380704969168,0.007411062251776457
1706237847987155558,0.13054311275482178,9.768038749694826,-0.9991213679313661,-0.0004855779407080263,-0.0015110928798094392,0.007245157845318317
1706237848006194058,0.13158403337001803,9.76564693450928,-0.9850516915321351,-0.00016007620433811098,-0.000618268852122128,0.006959959398955107
1706237848008878613,0.1367042362689972,9.769703865051271,-0.9901095032691957,0.0010279202833771706,0.00035179656697437167,0.0067718615755438805
1706237848017258706,0.11896193027496338,9.769053459167482,-0.9900357723236084,0.0027780933305621147,0.001005487865768373,0.006955027114599943
1706237848027128113,0.12557369470596313,9.769021034240724,-0.9910755157470703,0.004468540195375681,0.0012052219826728106,0.007616081275045872
1706237848037383391,0.12929613888263705,9.772743225097656,-0.9927759766578675,0.005351949483156204,0.001086911652237177,0.008557816036045551
1706237848057307632,0.12477833032608032,9.761961936950685,-0.9928876757621766,0.005080508999526501,0.0008779451018199325,0.0094015933573246
1706237848067162558,0.13272057473659518,9.769385337829592,-0.9929969906806947,0.003943732939660549,0.0006715247291140258,0.009822654537856579
1706237848079178780,0.1257307529449463,9.770017623901367,-0.9915942549705506,0.0017242484027519822,2.6237736165057868e-05,0.009238224476575851
1706237848087993836,0.1343193203210831,9.752161979675295,-0.9842147827148438,0.0016408110968768597,-0.0003438669955357909,0.008647231385111809
1706237848102849280,0.12812505662441256,9.75790309906006,-0.9943579435348511,0.002265778137370944,-0.0008793096640147269,0.008289046585559845
1706237848111733910,0.12714423239231112,9.7609338760376,-0.9848201870918275,0.003257736098021269,-0.0019990073051303625,0.008396690711379051
1706237848126024836,0.1392253786325455,9.769713401794435,-0.9862968921661377,0.004230920225381851,-0.0038094744086265564,0.00898061040788889
1706237848130720261,0.12757723033428195,9.766999244689943,-0.9907902479171753,0.0049867285415530205,-0.005735091865062714,0.009913872927427292
1706237848137938521,0.1241295337677002,9.766342163085938,-0.9922699928283691,0.005514247342944145,-0.006904273293912411,0.010953240096569061
1706237848147566780,0.1173134446144104,9.775440216064453,-0.991666615009308,0.005647608544677496,-0.006781744305044413,0.011713951826095581
1706237848157842261,0.13110148906707764,9.762944221496584,-0.9888428449630737,0.005026401486247778,-0.005391333252191544,0.0118748489767313
1706237848168120039,0.12371569126844408,9.763633728027344,-0.9957707524299623,0.0035709955263882875,-0.0032527747098356485,0.011405430734157562
1706237848182137650,0.11991995573043823,9.759596824645998,-0.9945571422576904,0.0016917692264541984,-0.001250001834705472,0.01048677135258913
1706237848188989298,0.12717363238334656,9.76126003265381,-0.9924486279487611,-9.229738498106599e-05,-0.0002567123156040907,0.009313832968473434
1706237848198903743,0.12022892385721208,9.764300346374513,-0.9879137277603149,-0.001469130045734346,-0.0006596328457817435,0.008112706243991852
1706237848207966891,0.12698818743228915,9.76430892944336,-0.9899812936782837,-0.002312805037945509,-0.0021690060384571552,0.007228437811136246
1706237848217284743,0.1252380907535553,9.766338348388672,-0.9909408092498779,-0.002612757496535778,-0.004030240699648857,0.006980907171964645
1706237848227299465,0.1251237392425537,9.755187034606935,-0.9893642663955688,-0.0024267355911433697,-0.005506549961864948,0.007420491427183151
1706237848238056410,0.126449391245842,9.76094722747803,-0.9984014630317689,-0.0018732096068561077,-0.006328017916530371,0.008268363773822784
1706237848247425132,0.12232016026973724,9.762612342834474,-0.9900347590446473,-0.0011491496115922928,-0.00670288223773241,0.009047959931194782
1706237848257219391,0.12438680231571198,9.761959075927734,-0.9874355196952821,-0.0005039273528382182,-0.006908200215548277,0.00938145350664854
1706237848267520576,0.12983909249305725,9.75825595855713,-1.0037658214569092,-0.00012991405674256384,-0.007041930221021175,0.009226313792169094
1706237848283588391,0.1268505305051804,9.778820037841797,-0.9855713844299316,5.306011985339865e-07,-0.00705637177452445,0.00871608778834343
1706237848288411502,0.12275881320238115,9.761934280395508,-0.9866114854812622,8.934896322898567e-05,-0.006723836064338684,0.008035647682845592
1706237848297382243,0.1217063292860985,9.774792671203615,-0.9996249079704286,0.0002161563461413607,-0.005748218856751919,0.007519094739109278
1706237848307461465,0.12985488772392273,9.772750854492188,-0.9899879097938539,0.0002477909729350358,-0.004067663103342056,0.007398180663585663
1706237848317325632,0.12046005576848985,9.763293266296388,-0.9865025281906128,8.662915206514299e-05,-0.0019291832577437162,0.007578741759061813
1706237848327403372,0.11908211559057237,9.76903820037842,-0.9918903708457948,-0.00024347596627194434,0.00016860263713169843,0.007933163084089756
1706237848338093835,0.128339946269989,9.763297080993654,-0.9851958751678467,-0.0007448377436958253,0.0016125659458339214,0.008476822637021542
1706237848347218484,0.13056956231594088,9.765657424926758,-0.9852227568626405,-0.001337322872132063,0.0019948172848671675,0.00924484059214592
1706237848357483058,0.12478464096784593,9.774455070495607,-0.9924851655960083,-0.0016878503374755383,0.0013580515515059233,0.010217679664492607
1706237848367788965,0.12042375653982164,9.76835346221924,-0.9916404485702515,-0.0015104693593457341,0.00022010244720149785,0.011218961328268051
1706237848378382539,0.13664090633392334,9.766999244689943,-0.9881086349487305,-0.0008956535020843148,-0.0007220057304948568,0.011903404258191586
1706237848387567780,0.13467124104499817,9.761941909790039,-0.9914891123771669,-3.1628271244699135e-05,-0.001110333250835538,0.012026376090943813
1706237848397587058,0.13014546036720276,9.75655746459961,-0.9943245053291322,0.001143290544860065,-0.0011693626875057817,0.01161227934062481
1706237848407602391,0.12463893741369249,9.758549690246584,-0.9819179773330688,0.0026641138829290867,-0.001487282570451498,0.010860268026590347
1706237848417631076,0.1279381811618805,9.771400451660156,-0.9940621256828309,0.004163909237831831,-0.002496571745723486,0.010088585317134857
1706237848427267465,0.12432993203401567,9.76869869232178,-0.9957153201103212,0.0050658006221055984,-0.003977609798312187,0.00958621222525835
1706237848437374706,0.12057662010192871,9.7636194229126,-0.9907279014587402,0.0049958075396716595,-0.005167897325009108,0.00933233741670847
1706237848451018946,0.1293923258781433,9.768695831298828,-0.998235046863556,0.003942559938877821,-0.0054602185264229774,0.009057984687387943
1706237848458187076,0.1260492205619812,9.760263442993164,-0.9908957481384277,0.0022706373129040003,-0.00485133146867156,0.008554544299840927
1706237848467541132,0.13213713467121127,9.763629913330078,-0.9966177940368652,0.0006335829966701567,-0.003820565529167652,0.007807855494320393
1706237848478215502,0.12642268836498263,9.758236885070803,-0.9916608333587646,-0.0003291823377367109,-0.0030040580313652754,0.006966872606426477
1706237848487764891,0.1335938274860382,9.771056175231935,-0.9962366223335267,-0.0003097442677244544,-0.0028405783232301474,0.006235791835933924
1706237848497775224,0.12862125039100647,9.771369934082031,-0.9861575365066528,0.0006012182566337287,-0.0032525118440389633,0.005785134620964527
1706237848508041354,0.13148802518844604,9.769379615783693,-0.994408667087555,0.002050676615908742,-0.003659194801002741,0.005752260331064463
1706237848517782280,0.1278602331876755,9.773774147033693,-1.003862500190735,0.0035828324034810066,-0.003436970990151167,0.006126247346401215
1706237848527974058,0.1266539990901947,9.752163887023928,-0.9984636902809144,0.0047621773555874825,-0.002443599049001932,0.0065273805521428585
1706237848537039595,0.13918772339820862,9.760589599609375,-0.9830647110939027,0.00533277029171586,-0.001241803402081132,0.006456463597714901
1706237848548134687,0.12307928502559662,9.769715309143068,-0.9908841252326966,0.005373181775212288,-0.0007259197882376611,0.005954267457127571
1706237848557499002,0.1362392008304596,9.764322280883789,-0.9909747242927552,0.005179972853511572,-0.0012802780838683248,0.0056343767791986465
1706237848567996539,0.1176234781742096,9.767997741699219,-0.986017107963562,0.0049433656968176365,-0.0024700788781046867,0.006007540971040726
1706237848577045854,0.11929952353239061,9.760936737060547,-0.9877918362617494,0.00454490352421999,-0.0035901495721191168,0.007123503368347883
1706237848587738669,0.12918388843536377,9.762630462646484,-0.9905983805656434,0.0036543214228004217,-0.004254058934748173,0.00871726032346487
1706237848597938909,0.12640042603015902,9.765316963195803,-0.9937753677368164,0.002182857133448124,-0.004500170238316059,0.010339243337512016
1706237848607227372,0.1323979049921036,9.762965202331545,-0.9937398433685303,0.0005849591107107699,-0.0045344154350459576,0.011448956094682217
1706237848617768243,0.12646333873271945,9.763620376586914,-0.9911131262779237,-0.00045556906843557954,-0.004502223338931799,0.011655633337795734
1706237848627792465,0.13227114081382751,9.75957775115967,-0.986294448375702,-0.0005275494768284261,-0.00449678348377347,0.010989624075591564
1706237848638001965,0.11967414617538452,9.769023895263672,-0.9917106628417969,0.00028196460334584117,-0.004594285506755114,0.009927955456078053
1706237848647464446,0.12279752641916276,9.759239196777344,-0.9951345920562744,0.001423189416527748,-0.004778175614774227,0.009032800793647766
1706237848657762169,0.121734619140625,9.768695831298828,-0.9929728507995605,0.0021471455693244934,-0.004933202173560858,0.008520501665771008
1706237848667788224,0.1262573003768921,9.765662193298342,-0.9961010813713075,0.0019656892400234938,-0.004931463394314051,0.008229313418269157
1706237848678333539,0.13091506063938144,9.759927749633789,-0.9936802387237549,0.000990904401987791,-0.004700009245425463,0.007901325821876526
1706237848688216539,0.1248789355158806,9.768345832824709,-0.990741789340973,-0.00016305081953760237,-0.004307217430323362,0.007420928217470646
1706237848697711891,0.13637931644916537,9.763636589050295,-0.9941481947898866,-0.0008127799956128001,-0.003920373972505331,0.0068908752873539925
1706237848707738613,0.1230585128068924,9.758596420288086,-0.996860146522522,-0.0005815107142552733,-0.0036656942684203386,0.006493051070719957
1706237848717487669,0.12706738710403442,9.766347885131836,-0.9915502667427064,0.0004367322544567287,-0.0036478822585195303,0.00627480074763298
1706237848734605780,0.1380097419023514,9.768024444580078,-0.9972496032714844,0.0017826708499342203,-0.0038990997709333897,0.0061541153118014336
1706237848737841409,0.12037909775972368,9.76902961730957,-0.995091438293457,0.0030219138134270906,-0.004197868052870035,0.006038290448486805
1706237848747791946,0.12814600765705111,9.771059036254883,-0.9958180785179139,0.0039014804642647505,-0.004150440916419029,0.005850020796060562
1706237848757403280,0.12131654471158983,9.769703865051271,-0.995780646800995,0.004183842334896326,-0.0034835326950997114,0.005549806635826826
1706237848767805520,0.12009460479021074,9.776825904846193,-1.002251982688904,0.003672081045806408,-0.0021866224706172943,0.005137177649885416
1706237848777883094,0.12537758052349093,9.776097297668459,-0.9871307611465454,0.0023705593775957823,-0.00041208480251953006,0.004622824024409056
1706237848788644631,0.13887912034988403,9.756205558776857,-0.9976662397384644,0.0006411736831068993,0.0015659176278859377,0.00412839837372303
1706237848796992520,0.12921485304832458,9.772065162658693,-0.9917402863502504,-0.0007272540824487805,0.003191864350810647,0.003906409256160259
1706237848807763298,0.13531342148780823,9.750490188598633,-0.9953789710998535,-0.0009149635443463922,0.0037424955517053604,0.004111765418201685
1706237848818028391,0.1280680447816849,9.76362419128418,-0.987675666809082,0.0003157582541462034,0.002757142996415496,0.004695089068263769
1706237848827140354,0.12382746487855913,9.768012046813967,-0.9961795210838319,0.0024420409463346004,0.0003525693027768284,0.005526440683752298
1706237848845559020,0.13527877628803256,9.768707275390625,-0.9933614134788514,0.004525614902377129,-0.0026605648454278708,0.0064355600625276566
1706237848853225613,0.1345375329256058,9.763285636901857,-0.9847093224525453,0.005859910044819117,-0.005114825442433357,0.007223791908472776
1706237848856982446,0.1336479038000107,9.768015861511232,-0.9890732169151307,0.006408167537301779,-0.006222898606210947,0.007855866104364395
1706237848869854057,0.12168642133474351,9.770051002502443,-1.0038683414459229,0.00652296980842948,-0.005917893722653389,0.008440863341093063
1706237848882588335,0.12672246992588046,9.76089096069336,-0.9888969659805298,0.006351811811327934,-0.004624202381819487,0.008866342715919018
1706237848888276409,0.133152037858963,9.772680282592773,-0.9839802980422974,0.00577002577483654,-0.002969185123220086,0.00888166856020689
1706237848897614354,0.12665510177612305,9.771692276000977,-0.9924393296241761,0.0048092687502503395,-0.0014921955298632383,0.008612839505076408
1706237848907153613,0.12600894272327426,9.763922691345217,-0.9874215126037598,0.0037740564439445734,-0.000397122377762571,0.008500323630869389
1706237848917927631,0.12485367804765703,9.769349098205568,-0.9970912933349609,0.002905037486925721,0.0003139687469229102,0.008764651603996754
1706237848927319094,0.13654401898384094,9.768310546875,-0.9878787994384766,0.002258137334138155,0.0006251512095332146,0.009228515438735485
1706237848937279761,0.13419269025325778,9.772697448730469,-0.9855154156684877,0.001961419126018882,0.0005987203912809491,0.00961299892514944
1706237848948328502,0.12392371147871019,9.771678924560547,-0.9860811829566957,0.002250776859000325,0.00047770081437192857,0.00989767350256443
1706237848957367631,0.13141168653965,9.762908935546875,-0.9932931661605835,0.0030935073737055063,0.0005182101740501821,0.010276040062308311
1706237848967168113,0.12752489745616916,9.768301010131836,-0.9923471212387085,0.0040686000138521194,0.0007149892626330256,0.010771499946713448
1706237848980043187,0.12285539507865906,9.77000141143799,-0.9938766956329346,0.004699507262557745,0.0008247477817349136,0.011100757867097855
1706237848987038279,0.12543028593063354,9.766943931579592,-0.9879145622253418,0.004677439574152231,0.0006948686204850674,0.010964887216687202
1706237848997606909,0.12949597835540771,9.767601013183594,-0.9850510358810425,0.003930982667952776,0.0003882158489432186,0.01040074322372675
1706237849007620594,0.13374082744121554,9.778109550476076,-0.9898331165313721,0.002760599832981825,7.47243975638412e-05,0.009812633506953716
1706237849017758279,0.13935221731662753,9.772687911987305,-0.9869686365127563,0.0018269947031512856,2.8800937798223458e-05,0.0096316272392869
1706237849027685113,0.13063098490238192,9.773015975952148,-0.9814934730529785,0.001819892437197268,0.0005453905905596912,0.01002137828618288
1706237849039602335,0.12042669206857683,9.767636299133303,-0.9891140460968018,0.002915353747084737,0.0016319542191922665,0.010922533459961414
1706237849047846242,0.13181315362453463,9.757499694824219,-0.9947547912597656,0.004496497102081776,0.0028243595734238625,0.012091672979295254
1706237849057208076,0.13046239316463473,9.76492691040039,-0.992331862449646,0.005652213003486395,0.003353595035150647,0.013023404404520988
1706237849087967057,0.11994180828332902,9.764591217041016,-0.999394714832306,0.00420412328094244,-0.0018637095345184207,0.011072850786149502
1706237849097661779,0.12078727781772614,9.769308090209961,-0.9899379611015321,0.0025295938830822706,-0.003945943899452686,0.009638275019824505
1706237849107847242,0.1257268488407135,9.766607284545898,-0.9903391599655151,0.0005426244460977614,-0.004930421710014343,0.008386613801121712
1706237849118228150,0.12559634447097778,9.759542465209961,-0.9979187250137329,-0.0013880988117307425,-0.004741311073303223,0.007493237964808941
1706237849131541779,0.13102562725543979,9.772354125976562,-0.9892891049385072,-0.0027453056536614895,-0.00383548391982913,0.0070165954530239105
1706237849138426020,0.11979227513074876,9.775400161743164,-0.9863300919532777,-0.0031291695777326822,-0.0027467762120068073,0.006902460008859634
1706237849177920909,0.13929533958435059,9.75581455230713,-0.9913805723190308,0.0011405372060835361,-6.033018507878296e-05,0.010107728652656078
1706237849187702668,0.1354767084121704,9.76088619232178,-0.9936140179634095,0.002264205599203706,-0.0013397005386650562,0.010857053101062775
1706237849197761150,0.12516537308692932,9.765589714050295,-0.9824653267860414,0.003383105853572488,-0.003510630689561367,0.011090257205069065
1706237849212823205,0.12837404012680054,9.773024559020998,-0.9923421740531922,0.004535790532827377,-0.005822505336254835,0.01091800443828106
1706237849223624502,0.12044573575258256,9.761537551879883,-0.9903096556663514,0.005375887732952833,-0.007298299577087164,0.01064000278711319
1706237849227558298,0.12764880061149597,9.778099060058594,-0.9956954121589662,0.0054259514436125755,-0.007306769024580717,0.010417119599878788
1706237849237232557,0.12245977669954301,9.762563705444336,-0.9885405898094178,0.004503288306295872,-0.005865024868398905,0.010159527882933617
1706237849247458927,0.12496946007013322,9.767629623413086,-0.9949907660484315,0.0028541681822389364,-0.003534229937940836,0.009746614843606949
1706237849257223557,0.1319805085659027,9.763229370117188,-0.99311500787735,0.0010097752092406154,-0.0011889388551935554,0.009178860113024712
1706237849269849483,0.12564544379711154,9.760191917419435,-0.9869543910026551,-0.000414981011999771,0.00032414894667454064,0.008550419472157955
1706237849277363853,0.12622289359569552,9.766286849975586,-0.9936020970344545,-0.0009825630113482475,0.0005367397097870708,0.008039036765694618
1706237849287754909,0.13552987575531006,9.772697448730469,-0.9871873259544374,-0.0006467219791375101,-0.00042389004374854267,0.007846161723136902
1706237849297422409,0.12823100388050082,9.765275955200195,-0.9963361620903016,0.00037807264016009867,-0.0018512203823775053,0.008031227625906467
1706237849307473853,0.1209920421242714,9.764257431030273,-0.9905126690864564,0.001771774492226541,-0.0029293266125023365,0.008433136157691479
1706237849317460779,0.12054954469203949,9.755823135375977,-0.990737795829773,0.002992644440382719,-0.0033561214804649353,0.008787816390395164
1706237849327320890,0.12169509381055833,9.766279220581055,-1.0017852783203125,0.0033698859624564648,-0.0034521326888352633,0.008894872851669788
1706237849337676761,0.128390446305275,9.756838798522951,-0.9949174523353578,0.0025832431856542826,-0.003704989794641733,0.008598686195909977
1706237849347720224,0.13310770690441134,9.769994735717773,-0.9909292459487915,0.001014465233311057,-0.004313798155635595,0.007803644984960556
1706237849357578205,0.14188238978385925,9.763909339904787,-0.995936691761017,-0.0003662563976831734,-0.005080216098576784,0.006688930559903383
1706237849367336909,0.1315256655216217,9.766978263854982,-0.9955362677574159,-0.0005174530087970197,-0.005589713808149099,0.0056548574939370155
1706237849377336501,0.12798784673213962,9.768630981445312,-0.9937865734100342,0.0009725219570100307,-0.005518822930753231,0.004982358310371637
1706237849387711372,0.13347142934799194,9.76527500152588,-0.992995321750641,0.003541145473718643,-0.004815537948161364,0.0047268010675907135
1706237849397599076,0.12424129247665405,9.76494026184082,-0.9934955239295961,0.006080362480133772,-0.0036955473478883505,0.004842756781727076
1706237849407778372,0.12989118695259094,9.775054931640625,-0.9998499155044556,0.007642694283276796,-0.0025069790426641703,0.005211665760725737
1706237849417615205,0.13264372944831848,9.761209487915039,-0.9981744289398193,0.007842671126127243,-0.001491936040110886,0.005568656139075756
1706237849428050409,0.13462361693382263,9.761890411376953,-0.9985091090202333,0.006972564850002527,-0.0007814434356987476,0.005572027526795864
1706237849437968576,0.131378248333931,9.776753425598146,-0.9983686804771424,0.0057867588475346565,-0.0005253959679976106,0.0050389738753438
1706237849448207650,0.12247934937477112,9.769655227661133,-0.9898446798324585,0.004940675105899572,-0.0006610436248593032,0.0041112955659627914
1706237849457902150,0.13420705497264865,9.766303062438967,-0.9935201406478882,0.004567066673189402,-0.0007923975354060531,0.0032357419840991497
1706237849468055594,0.12496306747198106,9.775380134582521,-0.9889835715293885,0.004423090256750584,-0.0005891023902222514,0.0029437087941914797
1706237849478233224,0.1308555454015732,9.767293930053711,-0.9892266988754272,0.004278453532606363,-2.0632722225855105e-05,0.0035443950910121202
1706237849487432353,0.1252158731222153,9.761878967285156,-0.9961447715759277,0.004035708960145712,0.0007244714070111513,0.004957347642630339
1706237849497218927,0.11484631896018982,9.767953872680664,-0.9820364713668823,0.0036032700445502996,0.0012633352307602763,0.006768776569515467
1706237849507194816,0.1264765113592148,9.76662349700928,-0.9877418279647827,0.002776613924652338,0.0012192877475172281,0.008541340939700603
1706237849537989946,0.12273672223091125,9.76460075378418,-1.0003843307495117,-0.00149877171497792,-0.0020381142385303974,0.011102493852376938
1706237849548360279,0.1251804232597351,9.779106140136719,-0.984748661518097,-0.002007956150919199,-0.0032630558125674725,0.01013579685240984
1706237849557222353,0.12265474349260332,9.759179115295412,-0.9858579635620117,-0.0017593721859157085,-0.0038276175037026405,0.008547097444534302
1706237849567285575,0.13245069980621338,9.768991470336914,-0.9946253299713135,-0.0011166301555931568,-0.0034898638259619474,0.007214084733277559
1706237849577021557,0.13150556385517123,9.771360397338867,-0.9952208995819092,-0.00034833402605727315,-0.002517488319426775,0.00676296092569828
1706237849587074224,0.13244065642356873,9.768302917480469,-0.9859161376953125,0.0005753166624344885,-0.001360451802611351,0.007117828354239464
1706237849597439020,0.12881159782409668,9.770998001098633,-0.9920641779899598,0.0017674195114523172,-0.00029111088952049613,0.00785251148045063
1706237849607347964,0.12657602131366733,9.762909889221193,-0.9945809841156006,0.0031199355144053698,0.0005451188189908862,0.00863095372915268
1706237849617985075,0.1304263174533844,9.777441978454592,-1.0002640485763552,0.004280279856175184,0.0010346842464059591,0.0091569684445858
1706237849627675075,0.1259174942970276,9.773034095764162,-0.988843560218811,0.004906537942588329,0.0012329865712672472,0.009109235368669033
1706237849637662631,0.11896772682666779,9.770679473876953,-0.9896799921989442,0.004838783759623766,0.0014327372191473842,0.00843589287251234
1706237849647688020,0.12791255116462708,9.773035049438477,-0.9956824779510498,0.004041469190269709,0.0018865619786083698,0.00752342538908124
1706237849658111409,0.13144037127494812,9.763242721557617,-0.9909869432449341,0.0026721027679741383,0.002532197628170252,0.006846099626272917
1706237849667998224,0.13794183731079102,9.76223373413086,-0.9943850040435791,0.001286037266254425,0.002993054687976837,0.006590825505554676
1706237849677988520,0.13680493831634521,9.766948699951172,-0.9825568795204164,0.0007034073933027685,0.002786195371299982,0.0067246356047689915
1706237849687086427,0.13146515190601352,9.767646789550781,-0.9962474703788758,0.0014870971208438277,0.0017130598425865173,0.0072145238518714905
1706237849698303742,0.13226561248302462,9.764599800109865,-0.9935948848724365,0.0034974045120179653,8.253143460024148e-05,0.007971434853971004
1706237849707844538,0.13048999011516574,9.762907028198242,-0.9882192015647889,0.005954386666417122,-0.0015629661502316594,0.00871300045400858
1706237849717705612,0.12973323464393616,9.763257026672365,-0.993126630783081,0.007936839014291763,-0.0028649657033383846,0.00915997289121151
1706237849727950816,0.13283623754978183,9.77271366119385,-0.9948902726173402,0.008860866539180279,-0.0037130408454686403,0.009247137233614922
1706237849737965909,0.1328004002571106,9.767969131469727,-0.9905992150306703,0.008684992790222168,-0.00401731114834547,0.009020807221531868
1706237849748023316,0.12519462406635287,9.766620635986328,-0.995986819267273,0.007789770141243935,-0.0036664321087300777,0.008552270010113716
1706237849757811298,0.13585363328456881,9.775735855102539,-0.9940445423126221,0.006638409569859505,-0.0027166150975972414,0.00794586818665266
1706237849768017909,0.1328679323196411,9.770326614379883,-0.9838312864303589,0.005608557257801294,-0.001375097781419754,0.0073432475328445435
1706237849818492816,0.12130816280841827,9.768643379211428,-0.9895094633102417,0.0016245495062321424,0.0046230582520365715,0.008243639022111893
1706237849858226353,0.13488337397575378,9.752771377563477,-0.9801243543624878,-0.0011210923548787832,0.002517630346119404,0.010813407599925995
1706237849898138260,0.12120291590690613,9.771712303161623,-0.9802589416503906,0.0051310560666024685,-0.005370768718421459,0.012985285371541977
1706237849907927853,0.11560920625925065,9.76226806640625,-0.9790895581245423,0.0048716748133301735,-0.006125940475612879,0.013108001090586185
1706237849917583612,0.12551485002040866,9.770722389221193,-0.9916573762893677,0.0033243054058402777,-0.005711352918297052,0.013780507259070873
1706237849927807668,0.13703908026218417,9.780502319335938,-0.9922199249267578,0.0009206941467709839,-0.004370368551462889,0.014890926890075207
1706237849938065797,0.13412576913833618,9.772740364074709,-0.9897945523262025,-0.0012791494373232126,-0.0023675314150750637,0.01573619805276394
1706237849957637946,0.12266603112220764,9.767330169677734,-0.9853032231330873,-0.0009977606823667884,0.002820339286699891,0.01469212956726551
1706237849967788779,0.13702459633350375,9.776129722595217,-0.9944291710853578,0.0013685045996680856,0.0051558976992964745,0.0133360605686903
1706237849984080075,0.13553605973720553,9.770401000976562,-0.990231215953827,0.003985872957855463,0.006624653935432434,0.012103949673473835
1706237849987334446,0.13163532316684726,9.773440361022951,-0.9915827512741089,0.0061564319767057896,0.007038057781755924,0.011133654043078423
1706237849998668094,0.1269032806158066,9.76666259765625,-0.9880181550979614,0.0076211546547710896,0.006554677616804838,0.01037532277405262
1706237850008187594,0.13192695379257202,9.773429870605469,-0.9909525513648988,0.008246797136962414,0.005485834088176489,0.00983082689344883
1706237850019885334,0.1315715461969376,9.778140068054201,-0.999301850795746,0.008014487102627754,0.004220659378916025,0.009503386914730072
1706237850030762001,0.1270037591457367,9.764959335327148,-0.9758729338645936,0.007160755805671215,0.003215897362679243,0.009298736229538918
1706237850037077038,0.12407426536083221,9.76092052459717,-0.9890275001525879,0.006022323854267597,0.002686398569494486,0.009246887639164925
1706237850048338390,0.1270529478788376,9.775421142578125,-0.9850726723670961,0.004781072959303856,0.0023567252792418003,0.009622407145798206
1706237850057554557,0.12367529422044755,9.766665458679201,-0.9927395582199097,0.0034838884603232145,0.0018672398291528225,0.010548094287514687
1706237850067668908,0.1250910460948944,9.764644622802734,-0.9899688959121704,0.0021910432260483503,0.0011995837558060884,0.011695313267409801
1706237850077953945,0.13835288584232333,9.762631416320803,-0.9955273866653442,0.001070392201654613,0.0004599372623488307,0.012494973838329315
1706237850087337001,0.12973399460315707,9.771062850952148,-1.005680799484253,0.0004756218404509127,-0.0003578601172193885,0.012436138466000557
1706237850097842131,0.1391211748123169,9.764309883117678,-0.9975920319557191,0.0008128944900818169,-0.0012059281580150127,0.011181467212736607
1706237850107960316,0.12511709332466125,9.760604858398438,-1.003169655799866,0.0021755520720034838,-0.0019307681359350681,0.008714447729289532
1706237850117683020,0.14532536268234253,9.75890636444092,-0.9942612648010254,0.004203274380415678,-0.002531945239752531,0.005506946239620447
1706237850127415371,0.12663403153419495,9.761614799499513,-0.9960950613021851,0.00635597063228488,-0.0032369550317525864,0.002411870751529932
1706237850137432316,0.12314073741436005,9.759220123291016,-0.9922311902046205,0.008121083490550518,-0.004234448540955782,0.00030589519883506
1706237850147666408,0.13115654885768893,9.758245468139648,-1.000483751296997,0.008958088234066963,-0.00548802362754941,-0.00031617574859410524
1706237850157510427,0.13096009194850924,9.765662193298342,-1.0005779266357422,0.008536768145859241,-0.006789371836930513,0.0003794991644099355
1706237850167158649,0.1323816925287247,9.768037796020508,-0.9977530837059022,0.007137366104871035,-0.007798864506185055,0.0016648763557896018
1706237850178209427,0.12434981763362885,9.755528450012209,-0.9933878779411317,0.005469239316880703,-0.008144942112267017,0.00277158385142684
1706237850187391038,0.12768855690956116,9.757887840270998,-0.9938043355941772,0.004090743139386177,-0.007789443712681532,0.003392226528376341
1706237850197291964,0.13974475860595703,9.761961936950685,-0.9998667240142822,0.0032040379010140896,-0.007182386238127947,0.0036703567020595074
1706237850217408575,0.1344707161188126,9.75655746459961,-1.0087560415267947,0.003217095509171486,-0.00689901364967227,0.0036580583546310663
1706237850227480538,0.13583926856517795,9.754553794860842,-1.0081980228424072,0.003991458099335432,-0.007336410228163004,0.0029687408823519945
1706237850237979575,0.13742130994796753,9.759258270263672,-1.0050034523010254,0.005033127032220364,-0.008099367842078209,0.0014472311595454812
1706237850247548408,0.12327202409505846,9.752842903137209,-1.006271004676819,0.006226050667464733,-0.009121054783463478,-0.0008168371859937906
1706237850257212723,0.13686183094978333,9.768395423889162,-1.0037060976028445,0.007314644288271666,-0.010197319090366364,-0.0033140673767775297
1706237850267662019,0.13247288763523105,9.758600234985352,-1.0054969787597656,0.007955820299685001,-0.010957788676023483,-0.0053992741741240025
1706237850277318371,0.12443023920059204,9.755899429321289,-1.0036790370941162,0.008023514412343502,-0.011056813411414623,-0.00662496592849493
1706237850287811353,0.131754070520401,9.767711639404297,-1.0126518011093142,0.007571890018880367,-0.010484883561730385,-0.006930279545485973
1706237850297498964,0.12998481094837191,9.756562232971193,-0.9994089603424072,0.006698221899569035,-0.009518930688500404,-0.0066275810822844505
1706237850307369001,0.1232532784342766,9.750139236450195,-0.9984030127525331,0.005593361798673868,-0.008519069291651249,-0.006078687962144613
1706237850327534334,0.12736217677593234,9.765022277832031,-1.0004967451095583,0.0031582433730363846,-0.008293180726468563,-0.004195349290966988
1706237850350745945,0.13127410411834717,9.76870632171631,-1.000160336494446,0.00044292418169789016,-0.010417243465781212,-0.0010279607959091663
1706237850357643871,0.12876048684120178,9.759597778320312,-0.997399091720581,-0.0005178655846975744,-0.010871165432035923,0.00036045198794454336
1706237850367875186,0.1280958652496338,9.7595911026001,-0.995041310787201,-0.0007827038061805069,-0.010394307784736156,0.0012962787877768278
1706237850387930556,0.12776441872119906,9.763650894165039,-0.9928789138793945,0.0006478090072050691,-0.0073825037106871605,0.0018373617203906178
1706237850407104519,0.11305230110883714,9.77413082122803,-0.9942842721939087,0.0016646994045004249,-0.0033995984122157097,0.0013012080453336239
1706237850417853575,0.12629562616348267,9.764334678649904,-1.0023775100708008,0.0007291970541700721,-0.00196280051022768,0.0016588832950219512
1706237850427656205,0.12620922923088074,9.772428512573242,-0.9955697059631348,-0.0012042607413604856,-0.0011071747867390513,0.002591869793832302
1706237850439660149,0.12851689755916598,9.77444839477539,-0.9919325113296509,-0.0033021890558302402,-0.0005999301210977137,0.003616711823269725
1706237850447334334,0.11789068579673767,9.761972427368164,-0.9985162615776063,-0.004581461660563946,-0.00013391973334364593,0.004359708167612553
1706237850457176075,0.11838970333337785,9.765347480773928,-0.9974786043167114,-0.004695619456470013,0.00037263837293721735,0.004741310141980648
1706237850467322945,0.12821856141090393,9.771397590637209,-0.9848617911338807,-0.0040626428090035915,0.0006804518052376807,0.004825628362596035
1706237850477392130,0.11954082548618317,9.770057678222656,-0.9880675077438354,-0.0032864047680050135,0.000611060531809926,0.0048825182020664215
1706237850487900982,0.12612210214138034,9.762628555297852,-0.9895401000976562,-0.002685324754565954,0.0002996597031597048,0.005369949154555798
1706237850497606149,0.13085833191871643,9.775779724121094,-0.9835535883903505,-0.002277550520375371,-3.3584929042262957e-05,0.006566853262484074
1706237850507734612,0.12093206495046617,9.76699733734131,-0.9807851314544678,-0.0018881806172430515,-0.0002337959740543738,0.008404484018683434
1706237850517861519,0.11758942902088165,9.781869888305664,-0.9853299856185913,-0.0014061061665415764,-0.00011937457020394504,0.010653468780219555
1706237850528061427,0.12943223118782043,9.777826309204102,-0.9922443032264711,-0.001018935814499855,0.0005531434435397387,0.012968705035746098
1706237850537785408,0.11932535469532013,9.764294624328615,-0.9725648760795594,-0.0009684810065664351,0.0019143599784001708,0.014876635745167732
1706237850547995927,0.13191410899162292,9.767006874084474,-0.9811861515045166,-0.0012132610427215695,0.003621318144723773,0.016131341457366943
1706237850558151186,0.12372595816850664,9.766340255737305,-0.9833956956863403,-0.0014687359798699617,0.004855133593082428,0.016947101801633835
1706237850569231316,0.12488064914941789,9.77712631225586,-0.9767128229141235,-0.0014529505278915167,0.004975453484803438,0.01764153502881527
1706237850578000445,0.11737069487571716,9.783528327941896,-0.981843650341034,-0.0011487877927720547,0.004157513380050659,0.018333958461880684
1706237850588229167,0.12851426005363464,9.766334533691406,-0.9855371117591859,-0.0008431872120127082,0.0032754167914390564,0.018985379487276077
1706237850597369334,0.12380222231149675,9.772743225097656,-0.9821420311927797,-0.0008006668067537248,0.0030630487017333508,0.019421104341745377
1706237850607533741,0.1295350939035416,9.763967514038086,-0.9825289249420166,-0.0009693004540167749,0.003475021803751588,0.019436294212937355
1706237850618140945,0.14225755631923678,9.784224510192873,-0.9846498966217041,-0.0009875365067273378,0.003978538792580366,0.01900586113333702
1706237850638052741,0.1349453628063202,9.775439262390138,-0.9819204807281494,0.001207807450555265,0.004610870499163866,0.0174728874117136
1706237850648050075,0.13178388774394992,9.77508544921875,-0.9762014150619507,0.0034170879516750574,0.005182985216379166,0.016798997297883034
1706237850657691778,0.13389861583709717,9.775434494018555,-0.9754834771156312,0.005661186296492815,0.005965161137282848,0.016582416370511055
1706237850667364945,0.12278635799884796,9.774769783020021,-0.9848634004592896,0.007369172293692827,0.006733621470630169,0.017089562490582466
1706237850677362630,0.12137744575738908,9.771039962768555,-0.981231689453125,0.008078684099018574,0.007263869978487492,0.01821334846317768
1706237850687885371,0.12864333391189575,9.780846595764162,-0.9906541705131532,0.007472185418009758,0.0074209473095834255,0.01939505897462368
1706237850698689278,0.12345448881387712,9.77002811431885,-0.9833108782768251,0.005644295364618301,0.007248002104461193,0.019951334223151207
1706237850707215519,0.12496763467788696,9.784223556518555,-0.9862184524536133,0.003181462874636054,0.006958370096981525,0.019504928961396217
1706237850717589686,0.11929178237915039,9.765309333801271,-0.9906865358352661,0.0007879005279392004,0.006779362913221121,0.018166273832321167
1706237850727434890,0.13465702533721924,9.769004821777344,-0.9794309735298158,-0.0010555573971942067,0.006715855095535517,0.01637270674109459
1706237850740304778,0.1406674236059189,9.765972137451172,-0.9756856560707093,-0.0019745563622564077,0.006437466945499182,0.01473067607730627
1706237850748064741,0.1319135278463364,9.765979766845703,-0.9850318431854248,-0.0015330318128690124,0.005542229861021042,0.013914707116782665
1706237850757716278,0.12958073616027832,9.765302658081055,-0.988132417201996,0.0004069149727001786,0.003920865245163441,0.014248869381844997
1706237850777755315,0.13263638317584994,9.77474117279053,-0.97875314950943,0.005910107400268316,-0.00013683151337318122,0.01661679521203041
1706237850787138167,0.13234394788742065,9.768993377685547,-0.9815643429756166,0.007582239340990782,-0.0013610239839181304,0.017625577747821808
1706237850797920871,0.1417519450187683,9.765985488891602,-0.985465407371521,0.008133435621857643,-0.0014811675064265728,0.018352942541241646
1706237850808211315,0.1364302933216095,9.774416923522951,-0.9864727258682251,0.008071044459939003,-0.0007093551685102284,0.018743664026260376
1706237850818155001,0.13310240209102633,9.76631259918213,-0.9783148765563965,0.008079595863819122,0.0004221844137646258,0.018673839047551155
1706237850827191482,0.13691836595535278,9.763628959655763,-0.9857142567634584,0.008492526598274708,0.0014090390177443624,0.018186084926128387
1706237850837944297,0.13445964455604553,9.765982627868654,-0.9888076186180116,0.009190238080918789,0.0018387231975793839,0.017507880926132202
1706237850848206889,0.1304696798324585,9.772732734680178,-0.9884746670722963,0.009862534701824188,0.0015066572232171893,0.016762958839535713
1706237850857477075,0.14186401665210727,9.761608123779297,-0.9938985109329224,0.010239344090223312,0.000608146539889276,0.015853170305490494
1706237850869948667,0.12822586297988892,9.76228427886963,-0.9906458854675293,0.01024454366415739,-0.0004677842080127448,0.014622537419199944
1706237850877690797,0.13645000755786899,9.764976501464844,-0.9963167905807495,0.0099807009100914,-0.001523168757557869,0.01302313432097435
1706237850887520445,0.14396299421787265,9.763629913330078,-0.9877433776855469,0.009615736082196236,-0.0025367129128426313,0.011184072121977806
1706237850897543334,0.13971064984798434,9.76362705230713,-0.9905259013175965,0.00945066474378109,-0.0034512472338974476,0.00942443311214447
1706237850907593371,0.1313223093748093,9.764967918395998,-0.9935910105705262,0.009812663309276104,-0.00416173879057169,0.008140215650200844
1706237850917540278,0.13462400436401367,9.748764038085938,-0.9936333894729614,0.010632544755935669,-0.004665606655180454,0.007527321111410856
1706237850927262741,0.12515345215797424,9.764981269836428,-0.9981935620307923,0.011361297219991684,-0.005192262586206198,0.0074116201139986515
1706237850947993926,0.13497930765151978,9.759580612182617,-0.9952096343040467,0.010387629270553589,-0.006700883619487286,0.007155297789722681
1706237850957787593,0.13697224855422974,9.761280059814453,-0.9937897324562074,0.008766605518758297,-0.006979813799262047,0.006649159826338291
1706237850967907778,0.1334362030029297,9.75755023956299,-1.0031373500823975,0.007255730219185352,-0.006734032183885574,0.00600236002355814
1706237850978134426,0.13494329154491427,9.764986991882326,-0.9940615892410278,0.0064794085919857025,-0.006337745115160942,0.005280262790620327
1706237850987568315,0.12446128576993944,9.766308784484865,-0.9891670346260072,0.0065388367511332035,-0.006103409919887781,0.004522036761045456
1706237851009232334,0.11593206226825714,9.756545066833498,-0.9918810129165649,0.006927909795194864,-0.006023779511451721,0.003979548811912537
1706237851009270723,0.1313203424215317,9.767678260803224,-0.9897325038909912,0.006794912740588188,-0.005976373795419931,0.004037982784211636
1706237851017917630,0.13057596981525424,9.760263442993164,-0.9974853992462158,0.005639077164232731,-0.005917587783187628,0.004831119906157255
1706237851027642315,0.12969402968883517,9.77308750152588,-0.9862500429153442,0.0038189212791621685,-0.005788909271359444,0.006083209533244371
1706237851037683760,0.12444828450679779,9.76025390625,-0.9971534013748169,0.0021593880373984575,-0.005446293391287327,0.007346185389906168
1706237851048798334,0.1423047333955765,9.759904861450195,-0.9920164942741395,0.0012640856439247727,-0.004846612922847271,0.008267397060990334
1706237851062909241,0.12408064305782318,9.762941360473633,-0.9931925535202026,0.0013639291282743216,-0.004245643503963947,0.0086568808183074
1706237851068345556,0.13258454203605652,9.767701148986818,-1.002887487411499,0.002363775158300996,-0.003986390773206949,0.008468521758913994
1706237851078129260,0.13006873428821566,9.76059341430664,-0.9992589950561523,0.0038123305421322584,-0.004117653239518404,0.007698758039623499
1706237851088178260,0.1285253614187241,9.759889602661133,-0.999531626701355,0.005128759890794754,-0.004453002940863371,0.0063389744609594345
1706237851101855852,0.12728285789489746,9.764632225036623,-0.9934936761856079,0.005899494979530573,-0.004873005207628012,0.00456267548725009
1706237851107369223,0.12784127891063693,9.772407531738281,-0.9930838942527772,0.005946469493210316,-0.0052847652696073055,0.0028575377073138952
1706237851118802926,0.12145067751407623,9.766674041748047,-0.9981324076652528,0.005293325986713171,-0.005405852105468512,0.0018082181923091412
1706237851127806445,0.1199626624584198,9.764625549316406,-0.9849759936332704,0.00405743345618248,-0.00492741959169507,0.0017420168733224273
1706237851138448186,0.13190698623657227,9.769378662109375,-0.9906459450721742,0.0023941658437252045,-0.00387878087349236,0.002665190026164055
1706237851148126260,0.1380119025707245,9.76835823059082,-1.0003265142440798,0.0007114693289622664,-0.002597284037619829,0.004347939509898424
1706237851157768037,0.12115845084190369,9.767680168151857,-0.998142182826996,-0.00028528968687169254,-0.001412591664120555,0.006214958615601063
1706237851167914223,0.12430778890848161,9.772080421447756,-0.9930049180984497,-0.0001859977637650445,-0.0004940566141158342,0.007471843622624874
1706237851178115667,0.12989121675491333,9.762261390686037,-0.9957215785980225,0.0006680464721284807,0.00011727162927854806,0.0076666357927024364
1706237851188358760,0.1408965438604355,9.768704414367678,-0.9896952509880067,0.0016822355100885034,0.0004006343660876155,0.00699435081332922
1706237851197359297,0.1403214931488037,9.768725395202638,-1.007258415222168,0.002751298015937209,0.00032607410685159266,0.005988966207951307
1706237851207622926,0.13586270809173584,9.763648033142092,-0.9967704415321351,0.004228651523590088,-3.9506383473053575e-05,0.004990752786397934
1706237851217840982,0.13263511657714844,9.768361091613771,-1.0002615451812744,0.006286113057285547,-0.0005465920548886061,0.003986736293882132
1706237851227599963,0.1467265784740448,9.762967109680178,-0.9955576658248901,0.0085988100618124,-0.0010844757780432701,0.0029322467744350433
1706237851237237889,0.13286976516246798,9.755227088928224,-1.0040906667709353,0.010698462836444378,-0.001660086098127067,0.0019587234128266573
1706237851251000148,0.1420353353023529,9.769061088562013,-1.005235552787781,0.012316086329519749,-0.002417950890958309,0.001169365830719471
1706237851257695204,0.13001845777034762,9.760963439941406,-1.0047386884689333,0.013318243436515331,-0.0034315374214202166,0.0004349303198978305
1706237851267640000,0.12969742715358737,9.762632369995117,-0.9988081455230713,0.013563232496380806,-0.004508997313678265,-0.0004448237014003098
1706237851277742167,0.13834454119205478,9.761306762695312,-1.0017009973526003,0.012935076840221882,-0.005387026816606522,-0.0014284162316471338
1706237851287581778,0.12691061198711398,9.756226539611818,-0.9996685385704042,0.011548321694135666,-0.0059925890527665615,-0.002220273483544588
1706237851298196111,0.13237446546554565,9.770051002502443,-1.000624656677246,0.009778374806046486,-0.006418733391910791,-0.0025430836249142885
1706237851308140297,0.12524886429309848,9.749807357788086,-0.9970133304595947,0.00799040962010622,-0.006746825762093067,-0.0023175603710114956
1706237851318657426,0.12680779397487643,9.75894069671631,-1.006422519683838,0.00635382579639554,-0.007063144817948341,-0.001665156101807952
1706237851328188982,0.13851676881313327,9.758605003356935,-1.0106089115142822,0.004936987534165382,-0.0075585125014185905,-0.0009390932391397655
1706237851338400130,0.13377127051353455,9.76905632019043,-0.9987047910690308,0.003949790261685848,-0.008282149210572243,-0.0006606337265111506
1706237851353268297,0.13305445015430453,9.757261276245117,-1.0046906471252441,0.0037377432454377413,-0.008909023366868496,-0.0011196008417755365
1706237851358743389,0.13540674746036532,9.758948326110842,-1.001597046852112,0.004425654653459787,-0.009062464348971844,-0.002090164227411151
1706237851368216352,0.12808242440223694,9.771087646484375,-0.9958361387252808,0.005724889691919088,-0.008696074597537518,-0.003046504221856594
1706237851378010463,0.12551534175872803,9.77279281616211,-0.9970446825027466,0.007050604559481144,-0.007884272374212742,-0.0034661204554140568
1706237851388642963,0.12320356816053392,9.772769927978516,-0.9931062459945679,0.007719972636550665,-0.006493051536381245,-0.002991810441017151
1706237851397534482,0.11957496404647827,9.769402503967287,-0.9929819107055664,0.007213301490992308,-0.004384798929095268,-0.0015559813473373652
1706237851413968148,0.11411572247743608,9.76534938812256,-0.9961131811141968,0.005370414815843105,-0.001814739080145955,0.0005910966428928077
1706237851418028463,0.11568849533796312,9.762293815612795,-1.0010108947753906,0.002373857656493783,0.0005290909321047366,0.0029247163329273462
1706237851427423722,0.1205776557326317,9.767378807067873,-0.9974446892738343,-0.001307160360738635,0.0018817061791196465,0.00476484140381217
1706237851438658593,0.12475678324699402,9.77950954437256,-0.9911923408508301,-0.004906890448182821,0.0019524027593433857,0.005617864429950714
1706237851449399537,0.114517942070961,9.774772644042969,-0.9905169606208802,-0.007556925993412733,0.001260274206288159,0.005557473748922348
1706237851458204297,0.1138485297560692,9.756903648376467,-1.0019487142562868,-0.008805140852928162,0.0007009535911493003,0.005127991084009409
1706237851467982352,0.11017473787069322,9.766343116760256,-0.9862908124923706,-0.008960197679698467,0.0006205453537404537,0.004817265085875988
1706237851477675389,0.11118364334106445,9.759237289428711,-0.988128662109375,-0.008822462521493435,0.0005788194248452783,0.004856864456087351
1706237851487929556,0.11453676223754883,9.77107906341553,-0.9858710765838623,-0.009090193547308445,3.1370935175800696e-05,0.005439384840428829
1706237851497758426,0.12550470232963562,9.762306213378906,-0.9883360862731934,-0.009900247678160667,-0.001072803745046258,0.006706285290420055
1706237851508133019,0.12153159081935883,9.777820587158203,-0.989511787891388,-0.010734545066952705,-0.0022945688106119633,0.008512446656823158
1706237851518223000,0.11664216965436937,9.755192756652834,-0.987180233001709,-0.010858350433409214,-0.0030735486652702093,0.01041942834854126
1706237851528207334,0.12388905882835388,9.770726203918459,-0.9881528019905091,-0.009971891529858112,-0.003178959246724844,0.011955204419791698
1706237851537389815,0.1313229501247406,9.762969970703125,-0.9902275800704956,-0.008302625268697739,-0.002843421185389161,0.012853149324655533
1706237851548550000,0.12692636251449585,9.782876014709474,-0.9793573021888734,-0.006154284812510014,-0.0023628901690244675,0.013123436830937862
1706237851557404222,0.12877234816551208,9.774441719055178,-0.9704429507255555,-0.0037128066178411245,-0.0016563825774937868,0.013133649714291096
1706237851568159685,0.13159319758415222,9.766024589538576,-0.9893976449966431,-0.0012041317531839013,-0.00042251625563949347,0.013542167842388153
1706237851578152056,0.1331022083759308,9.770711898803711,-0.9887548089027406,0.0011098183458670974,0.001272982801310718,0.014698449522256851
1706237851587298593,0.13524270057678223,9.77578639984131,-0.9890317916870117,0.0030956072732806206,0.002894989913329482,0.016139963641762733
1706237851607274204,0.1429931074380875,9.772062301635742,-0.9861204624176025,0.0062489802949130535,0.004566628485918045,0.016909832134842873
1706237851617629741,0.12466510385274888,9.77140998840332,-0.9853917360305786,0.007608915213495493,0.004758140537887812,0.016010941937565804
1706237851627975704,0.12732040882110596,9.769023895263672,-0.9770668745040894,0.008730127476155758,0.004685594234615564,0.014891899190843105
1706237851637920908,0.1346157193183899,9.772748947143555,-0.9828673601150513,0.009208638221025467,0.0043794456869363785,0.01418178528547287
1706237851647467389,0.12631690502166748,9.770703315734865,-0.9774870872497559,0.008775332942605019,0.003893342800438404,0.014322680421173573
1706237851689099963,0.1361661106348038,9.770382881164553,-0.9876761436462402,0.004148220643401146,0.0037383411545306444,0.016813207417726517
1706237851697689852,0.1369049847126007,9.771059036254883,-0.9900830984115601,0.004339883569628,0.003829132067039609,0.015971405431628227
1706237851707514445,0.1329059600830078,9.773738861083984,-0.9868286848068237,0.005431605968624353,0.0035882971715182066,0.014911811798810959
1706237851717716574,0.12952661514282227,9.764964103698732,-0.9888173341751099,0.007044550962746143,0.0031650846358388662,0.013839203864336014
1706237851727632389,0.13451680541038513,9.769004821777344,-0.9817921519279481,0.008532440289855003,0.0026936267968267202,0.012925068847835064
1706237851738213074,0.1260165572166443,9.770047187805178,-0.9909654259681703,0.009325031191110611,0.002168782288208604,0.012366176582872868
1706237851748101630,0.12315425276756287,9.770702362060547,-0.9802136421203613,0.009138775989413261,0.0015987218357622623,0.012280000373721123
1706237851758282944,0.1259726583957672,9.772057533264162,-0.9836302995681763,0.007922698743641376,0.0011295072035863996,0.012657394632697105
1706237851768142667,0.11730618029832841,9.761589050292969,-0.99040025472641,0.005819062702357769,0.0009058376308530569,0.013402394019067287
1706237851778848000,0.1276153773069382,9.778814315795898,-0.9917842149734497,0.0031713424250483513,0.0008967143367044628,0.01423523761332035
1706237851787766093,0.12550026178359985,9.761590957641602,-0.9891360998153687,0.000496123218908906,0.0009802199201658368,0.014674968086183071
1706237851797612796,0.13337968289852145,9.769375801086428,-0.9916845560073853,-0.0015648484695702791,0.0010595419444143772,0.014356355182826519
1706237851807613963,0.12700541317462924,9.767333030700685,-0.9928737878799438,-0.002438995987176895,0.0010102769592776895,0.013285008259117603
1706237851817750722,0.127940908074379,9.773396492004396,-0.985802710056305,-0.0019480643095448613,0.0007656802772544324,0.011773238889873028
1706237851827492667,0.12847454845905307,9.768997192382812,-0.9821739196777344,-0.00045641715405508876,0.0004719055723398924,0.010334870778024197
1706237851838239870,0.1347124129533768,9.775766372680664,-0.9919313788414003,0.0013887772802263498,0.00039638698217459023,0.009547033347189426
1706237851848510093,0.11797823011875153,9.760564804077148,-0.989843785762787,0.003033291781321168,0.0006856006802991033,0.009672482497990131
1706237851857604056,0.12329676002264024,9.771732330322266,-0.9923724532127381,0.00403953529894352,0.001182468025945127,0.01040884293615818
1706237851868838741,0.12314110249280931,9.767670631408693,-0.9846198558807373,0.004025456495583057,0.0015312519390136003,0.011180232279002666
1706237851877679185,0.12950962781906128,9.76699733734131,-0.9890599846839906,0.0029411602299660444,0.0015080631710588932,0.011632253415882587
1706237851887825630,0.1263832449913025,9.758575439453125,-0.9987923502922059,0.0012827954487875104,0.001086844364181161,0.011724489741027355
1706237851907701852,0.13287469744682312,9.754509925842287,-0.9890976548194886,-0.0008743007783778012,-0.0008102868450805545,0.010713519528508186
1706237851917607759,0.13675649464130404,9.762615203857422,-0.990481197834015,-0.0005242119077593088,-0.00204339693300426,0.009737987071275711
1706237851927294370,0.12572894990444186,9.760923385620117,-0.9911651611328125,0.0008390058064833283,-0.003357849083840847,0.008895574137568474
1706237851938238778,0.12716279923915866,9.759898185729982,-0.9932683706283569,0.0028100034687668085,-0.004723614547401667,0.008446617983281612
1706237851948454574,0.12401711195707323,9.772415161132812,-0.9997991919517518,0.004614213015884161,-0.0059584639966487885,0.008324727416038513
1706237851958794815,0.1220654547214508,9.764655113220217,-0.9949831366539003,0.005477894097566605,-0.006698451936244965,0.008185571059584618
1706237851967680796,0.1173190176486969,9.755197525024414,-1.0018389225006104,0.004995634779334068,-0.006649562157690525,0.007649177685379982
1706237851977487278,0.1238103061914444,9.762605667114258,-0.9842932224273682,0.003217324148863554,-0.006002623122185469,0.006611344404518604
1706237851988004370,0.1238246336579323,9.762943267822266,-0.996610164642334,0.0006274636834859848,-0.005350411403924227,0.005411616526544094
1706237851997919352,0.12726092338562012,9.76429557800293,-0.9938564300537109,-0.001960969530045986,-0.005104245152324438,0.004605154041200876
1706237852007585407,0.12014855444431305,9.755526542663576,-0.9943914413452148,-0.003751765936613083,-0.005266123916953802,0.004475872032344341
1706237852017390537,0.1192620173096657,9.761606216430664,-1.003230094909668,-0.004414161667227745,-0.005711171310395002,0.004838545806705952
1706237852027329926,0.128273606300354,9.774114608764648,-1.0161343812942507,-0.004197605885565281,-0.006302157416939735,0.005116734188050032
1706237852038349370,0.12427582591772081,9.765676498413086,-0.9969460964202881,-0.003547091269865632,-0.006675569340586662,0.004542115610092878
1706237852051304444,0.12310568988323212,9.762282371520998,-0.9919901490211488,-0.0027432048227638006,-0.006374003365635872,0.002791069680824876
1706237852058014222,0.12002453207969666,9.771063804626467,-0.9950299859046937,-0.0019746976904571056,-0.00533194188028574,0.0005417799693532288
1706237852067738111,0.13317814469337463,9.771412849426271,-0.9946872591972352,-0.0014319401234388351,-0.0038732625544071198,-0.000999722396954894
1706237852087980944,0.16210049390792847,9.77110004425049,-1.0019676685333252,0.00011180787987541407,-0.0007048480911180377,9.42198239499703e-05
1706237852098269333,0.17885093390941623,9.765669822692873,-0.9900596737861634,0.003202845109626651,0.0007308119093067944,0.0018076500855386257
1706237852109052852,0.17271658778190613,9.766016006469727,-1.0046335458755495,0.00935218296945095,0.0017635709373280406,0.003284544451162219
1706237852117531481,0.16525539755821228,9.764327049255373,-0.9998250603675843,0.018522487953305244,0.002100409008562565,0.0040846411138772964
1706237852135195870,0.1510491669178009,9.77038097381592,-0.9956861734390259,0.029070692136883736,0.001628392026759684,0.004048315342515707
1706237852147376278,0.15471625328063965,9.773781776428224,-0.9941311478614808,0.04356061667203903,-0.0001856489252531901,0.0020568477921187878
1706237852158446481,0.16187015175819397,9.765673637390138,-0.9912364482879639,0.044184859842061996,-0.00019007196533493698,0.0007764920592308044
1706237852175945222,0.15559783577919006,9.775800704956055,-0.9942281246185303,0.04115854203701019,0.0006897929706610739,-2.0943953131791204e-06
1706237852179838148,0.15023602545261386,9.774110794067383,-0.9979097247123719,0.03651750832796097,0.0020088362507522106,0.00020637616398744285
1706237852187999778,0.15957897901535034,9.771756172180178,-1.0000150203704834,0.032083965837955475,0.0033192825503647327,0.0013410479295998812
1706237852197459926,0.15681856870651245,9.774129867553711,-0.9999103546142578,0.028934450820088387,0.004374349024146795,0.002775577362626791
1706237852210993629,0.1478154957294464,9.763978004455568,-0.9986786246299745,0.027443140745162964,0.00501318508759141,0.003776397556066513
1706237852220331685,0.15514187514781955,9.764324188232422,-0.9983820915222168,0.027327271178364754,0.005041308701038361,0.003955847583711147
1706237852231057315,0.1651516854763031,9.764336585998537,-0.9986200332641602,0.027933528646826744,0.004244210198521614,0.003397595137357712
1706237852238260537,0.1600918620824814,9.764659881591797,-0.9987809658050537,0.0288492813706398,0.00259382463991642,0.0024737827479839325
1706237852248014592,0.14986014366149902,9.765690803527834,-1.002861738204956,0.030014215037226677,0.0004069230635650456,0.0015602975618094206
1706237852258156000,0.15304018557071689,9.758611679077148,-1.0072846412658691,0.031216559931635857,-0.0018049281788989902,0.0008031738689169288
1706237852267988759,0.15572853386402133,9.76467800140381,-0.9974783062934877,0.03195090964436531,-0.0036479211412370205,9.282852261094376e-05
1706237852278447555,0.15721295773983004,9.763002395629883,-1.0090405941009521,0.03189501538872719,-0.004968397784978151,-0.0007027803803794086
1706237852287453740,0.16974285244941711,9.765355110168459,-1.0081706047058105,0.031291987746953964,-0.005732627119868994,-0.0016117063350975513
1706237852297677592,0.16367539763450623,9.762970924377443,-0.9953275322914125,0.030864359810948372,-0.0059488858096301556,-0.0026197312399744987
1706237852308112740,0.15896373987197876,9.762300491333008,-1.0017809867858887,0.0313144288957119,-0.005724428687244654,-0.003544938750565052
1706237852321932333,0.16737580299377441,9.771440505981445,-1.0022810697555544,0.03276786208152771,-0.005251268390566111,-0.00400838628411293
1706237852331298537,0.16231697797775269,9.76568126678467,-1.007551670074463,0.03477723151445389,-0.004639850463718176,-0.003828272456303239
1706237852337837389,0.15505966544151306,9.769397735595703,-1.0002640485763552,0.03672070428729057,-0.0038618070539087057,-0.00325957965105772
1706237852348630870,0.15504570305347445,9.75826644897461,-1.0066523551940918,0.03797772899270058,-0.002951615722849965,-0.0027277886401861906
1706237852357784722,0.14435914158821106,9.762960433959961,-0.988736629486084,0.037987031042575836,-0.002190734725445509,-0.0024368700105696917
1706237852367970000,0.15168799459934237,9.764332771301271,-0.9964910149574281,0.036437805742025375,-0.0019690515473484993,-0.002173456596210599
1706237852377637889,0.15801149606704712,9.761637687683107,-0.9965109825134277,0.03353426605463028,-0.002437804825603962,-0.0014874429907649755
1706237852387720870,0.15477998554706576,9.75149440765381,-0.9878063797950746,0.030125733464956284,-0.0034539089538156986,-0.0001322281896136701
1706237852397548759,0.15034431219100952,9.768388748168945,-1.0053274631500244,0.027321433648467064,-0.004828781820833683,0.0017345065716654062
1706237852408491240,0.15199413895606995,9.75588607788086,-0.9870423674583436,0.025778142735362053,-0.006344520952552557,0.0036602357868105173
1706237852418295852,0.15049126744270325,9.756246566772461,-1.0000686645507812,0.025423957034945488,-0.007697704713791609,0.005155150778591633
1706237852429021111,0.1433776617050171,9.760610580444336,-0.9913800954818726,0.025720205157995224,-0.008713134564459324,0.0059798057191073895
1706237852437518407,0.1431667357683182,9.758914947509766,-0.9873301982879639,0.025968210771679878,-0.009402227587997913,0.006234303582459688
1706237852449079370,0.12883014976978305,9.768044471740724,-0.9955582022666932,0.025485791265964508,-0.00974420364946127,0.006271688267588615
1706237852462143666,0.1339099556207657,9.763318061828615,-0.9932255148887635,0.023744838312268257,-0.009587102569639683,0.006435512099415064
1706237852467696500,0.11830267310142517,9.766010284423828,-0.9877321124076844,0.02051135152578354,-0.008785635232925415,0.006804490927606821
1706237852479508444,0.11488716304302216,9.757544517517092,-0.9858764410018921,0.015874547883868217,-0.007439331617206335,0.007334687747061253
1706237852489163963,0.1174769401550293,9.756226539611818,-0.9890410900115967,0.010147785767912865,-0.006013024132698774,0.008087831549346447
1706237852498212833,0.10317777097225189,9.754556655883789,-0.9900603294372559,0.0038290806114673615,-0.00518224760890007,0.00910898856818676
1706237852507475166,0.09857197105884552,9.766322135925295,-0.9805882573127748,-0.002540295012295246,-0.005408443510532379,0.010272642597556114
1706237852518896537,0.10984329134225847,9.772756576538086,-0.9831753373146058,-0.008597089909017086,-0.0064713433384895325,0.011450644582509995
1706237852528056926,0.08852781355381012,9.76564693450928,-0.9821828603744507,-0.014083211310207844,-0.007465703878551722,0.012679214589297771
1706237852538327537,0.08795229345560075,9.755837440490724,-0.9789751172065736,-0.018846573308110237,-0.007535830140113831,0.01403797697275877
1706237852549029740,0.0872582718729973,9.753170967102053,-0.9796406030654907,-0.023069167509675026,-0.006706705782562494,0.015522230416536331
1706237852557665129,0.0988699719309807,9.758895874023438,-0.9771411418914795,-0.02703438699245453,-0.005843303166329861,0.017068762332201004
1706237852577577351,0.09239942580461503,9.766656875610352,-0.9866675138473511,-0.03328373283147812,-0.006641397252678871,0.01946912333369255
1706237852588472166,0.08514957875013353,9.769706726074219,-0.9776277542114258,-0.034778863191604614,-0.007763690780848265,0.019471243023872375
1706237852620456833,0.10038381814956665,9.773090362548828,-0.9886291027069092,-0.03571869060397148,-0.0060223741456866264,0.0158159788697958
1706237852628403703,0.09927708655595781,9.771048545837404,-0.9874258041381836,-0.035762328654527664,-0.0037613429594784975,0.014673308469355106
1706237852637751796,0.09134873747825623,9.767674446105959,-0.9914476275444032,-0.035180870443582535,-0.0013406218495219946,0.013722257688641548
1706237852648714222,0.10245287418365479,9.759904861450195,-0.981339991092682,-0.03380221873521805,0.0007311470690183342,0.012936454266309738
1706237852658119074,0.10694348812103271,9.76059341430664,-0.9849604368209839,-0.031859029084444046,0.0018544970080256462,0.012398398481309414
1706237852668245222,0.12862931191921237,9.767335891723633,-0.9798746705055238,-0.02946900948882103,0.0015975743299350142,0.012328322045505047
1706237852677755685,0.1331509202718735,9.782874107360842,-0.9814742207527162,-0.026210976764559746,0.0001795980497263372,0.01291805412620306
1706237852687779351,0.12487082183361053,9.765296936035156,-0.9832885861396791,-0.021415160968899727,-0.0014032273320481181,0.014143852517008781
1706237852697592814,0.1391541808843613,9.770381927490234,-0.9833165407180786,-0.01495375856757164,-0.0020854894537478685,0.015709904953837395
1706237852707542814,0.1232476532459259,9.779827117919922,-0.9924461841583252,-0.007601456716656685,-0.0015195485902950168,0.017115872353315353
1706237852717655592,0.11233250796794891,9.780497550964357,-0.9765929579734803,-0.0007683355361223221,6.50113943265751e-05,0.01786256767809391
1706237852727624203,0.10969671607017517,9.769700050354006,-0.975840985774994,0.0038775759749114513,0.0023346736561506987,0.017836447805166245
1706237852737328925,0.11653269082307817,9.764959335327148,-0.9849683642387391,0.005045963916927576,0.004765705671161413,0.01748914271593094
1706237852748687944,0.1079837828874588,9.782862663269045,-0.9817137122154237,0.0026198800187557936,0.006580078508704901,0.01737392134964466
1706237852757752092,0.10260546207427979,9.77206039428711,-0.9891161918640137,-0.002309463918209076,0.007301717530936003,0.017590980976819992
1706237852768294425,0.10302595049142839,9.771702766418459,-0.9699236750602723,-0.008243984542787075,0.007116327062249184,0.017881980165839195
1706237852772590185,0.10841111838817596,9.781493186950685,-0.980150878429413,-0.013930682092905045,0.006515471264719963,0.01813831366598606
1706237852788251777,0.10182425379753113,9.777442932128906,-0.9838550090789795,-0.018477899953722954,0.005978793371468782,0.018536021932959557
1706237852792669740,0.11175544559955597,9.771665573120117,-0.973070800304413,-0.021370066329836845,0.0058851041831076145,0.019170638173818588
1706237852808068444,0.1130436509847641,9.76529312133789,-0.9846566319465638,-0.02247329242527485,0.00623374292626977,0.019910121336579323
1706237852817253036,0.12486866116523743,9.773412704467773,-0.9784393310546875,-0.021856941282749176,0.006541256792843342,0.020563023164868355
1706237852827284962,0.12203589826822282,9.775066375732422,-0.9722265601158143,-0.01963016204535961,0.006314100697636604,0.020998528227210045
1706237852837346407,0.1128622815012932,9.77204704284668,-0.9805566668510438,-0.01608547754585743,0.0055510513484478,0.021268775686621666
1706237852850792314,0.10790680348873138,9.770350456237795,-0.9815651178359985,-0.012030800804495811,0.004634989891201258,0.021529706194996834
1706237852856398055,0.11494751274585724,9.776449203491211,-0.988286018371582,-0.008717352524399757,0.003913231194019318,0.021716484799981117
1706237852867257925,0.11317460983991624,9.772377014160156,-0.9874176979064941,-0.0071341851726174355,0.003559219418093562,0.02147321030497551
1706237852877269907,0.11107116192579271,9.77271842956543,-0.9887211322784424,-0.007418449502438307,0.003619660157710314,0.02044539712369442
1706237852886739259,0.1184433102607727,9.774720191955568,-0.9835610389709473,-0.008965014480054379,0.004000368528068066,0.018611324951052666
1706237852896871536,0.12620945274829867,9.77406978607178,-0.9837576150894165,-0.010804400779306889,0.004520694259554148,0.016397476196289062
1706237852906605888,0.11870097368955614,9.775758743286133,-0.9870785474777222,-0.011902677826583385,0.005043221637606621,0.014465922489762306
1706237852917325333,0.12795625627040866,9.766977310180664,-0.9899747371673584,-0.011569916270673275,0.0054791998118162155,0.013279704377055168
1706237852927255555,0.14231395721435547,9.766292572021484,-0.9850598573684692,-0.009674211964011192,0.005653799045830965,0.01284012757241726
1706237852937437129,0.1462094485759735,9.76665782928467,-0.9995622634887695,-0.006309641990810633,0.005276074633002281,0.012797141447663307
1706237852947121222,0.15581747889518738,9.767690658569336,-0.9957051873207093,-0.0014876342611387372,0.0041698310524225235,0.01263243518769741
1706237852956600425,0.1545809507369995,9.772070884704592,-1.0076833963394167,0.004703498911112547,0.0025211297906935215,0.011778028681874275
1706237852966619073,0.16245184838771823,9.757204055786133,-0.998698651790619,0.011845343746244907,0.0007897026371210814,0.009839355945587158
1706237852979779536,0.15650017559528354,9.75855350494385,-0.9972984790802002,0.019188566133379936,-0.0007256977842189372,0.0068949623964726925
1706237852986473518,0.16814249753952026,9.764999389648438,-1.0039737224578857,0.02587994560599327,-0.0021251856815069914,0.003576344810426235
1706237853006475777,0.16777040064334872,9.770057678222656,-1.0050145387649538,0.03553846850991249,-0.004944831132888794,-0.0011590843787416816
1706237853023347555,0.17290198802947998,9.774447441101076,-1.0033354759216309,0.03879954293370247,-0.005819176323711872,-0.0019511980935931206
1706237853026416833,0.1762329638004303,9.76163101196289,-1.0056680440902712,0.04142403230071068,-0.005746235605329275,-0.0020297979936003685
1706237853036493796,0.1663535684347153,9.770392417907717,-1.0142297744750977,0.04357992857694626,-0.004639812745153904,-0.0019918319303542376
1706237853046715184,0.18172165751457214,9.76096820831299,-1.006251335144043,0.045318618416786194,-0.002969542285427451,-0.002411898225545883
1706237853056706907,0.16425420343875888,9.757574081420898,-1.0035458803176882,0.046622008085250854,-0.001502076629549265,-0.0035473001189529896
1706237853067713555,0.17403686046600342,9.763336181640625,-1.0044060945510866,0.04744945839047432,-0.0009398976690135896,-0.005108320619910955
1706237853076373444,0.15910704433918002,9.767023086547852,-1.0045419931411745,0.04768388718366623,-0.0015581109328195453,-0.006456301547586918
1706237853086737166,0.15406720340251925,9.754535675048828,-0.9983200430870057,0.04708132892847061,-0.0030224095098674297,-0.007063739467412233
1706237853096864536,0.15126974880695346,9.760611534118654,-1.0051052570343018,0.04530113562941551,-0.004753729794174433,-0.006737611722201109
1706237853109566499,0.1461212933063507,9.761289596557617,-1.0047117471694949,0.0421038456261158,-0.0063670906238257885,-0.0056441184133291245
1706237853117725110,0.16151881217956543,9.760264396667482,-0.9981487989425659,0.037692420184612274,-0.007651396095752716,-0.004233525600284338
1706237853127101925,0.1527785360813141,9.754874229431154,-1.00581693649292,0.03290101885795593,-0.008482016623020172,-0.0029635371174663305
1706237853137192184,0.1563403755426407,9.754562377929688,-1.0076538324356081,0.028898589313030243,-0.008948254399001598,-0.002118223812431097
1706237853147060833,0.15692263841629028,9.74915885925293,-1.0005539655685427,0.026539398357272148,-0.009387792088091373,-0.0018657875480130315
1706237853157199277,0.15850381553173068,9.755218505859375,-1.001708984375,0.02601170912384987,-0.010178813710808754,-0.002186632715165615
1706237853166867907,0.14976350963115695,9.753202438354492,-1.0018957853317263,0.026928836479783058,-0.011453373357653618,-0.002767578698694706
1706237853176866258,0.1426546573638916,9.75147819519043,-0.997360348701477,0.02845609374344349,-0.01299684401601553,-0.0031808752100914717
1706237853187144499,0.14867594838142395,9.758913993835451,-0.9925779104232788,0.02951044775545597,-0.014421594329178333,-0.0030844195280224085
1706237853196869499,0.14077231287956238,9.758593559265138,-1.0035580396652224,0.02925209142267704,-0.01533963531255722,-0.002290664240717888
1706237853206448407,0.14378002285957336,9.760612487792969,-1.0002905130386355,0.027495982125401497,-0.015431313775479794,-0.0009311510366387665
1706237853216681425,0.1201811283826828,9.755210876464844,-0.9976234436035156,0.024555815383791924,-0.014598832465708256,0.000504923751577735
1706237853226817666,0.12544904649257663,9.755548477172852,-0.9990388751029969,0.020716233178973198,-0.01312984898686409,0.0015313015319406986
1706237853240911944,0.12987791001796725,9.761616706848146,-0.9885691404342651,0.016077950596809387,-0.011583248153328896,0.002035834128037095
1706237853246538499,0.13933588564395907,9.76363277435303,-0.9915101528167725,0.011043083854019642,-0.01038049440830946,0.0023302477784454823
1706237853257234907,0.13202738761901855,9.758238792419435,-0.9930682182312012,0.006610550917685032,-0.00954708643257618,0.0028981161303818226
1706237853297109277,0.13700722157955172,9.762298583984375,-0.9875158667564393,0.005935592111200094,-0.007675297558307648,0.007853269577026367
1706237853316761055,0.11926133930683136,9.753846168518068,-0.9943207502365112,0.00757896201685071,-0.007741621695458889,0.008700926788151264
1706237853326895332,0.1197304204106331,9.756907463073732,-0.9950937628746034,0.006770190317183733,-0.007957378402352333,0.008709057234227657
1706237853338521647,0.12382347881793976,9.754191398620607,-0.989161789417267,0.0046759904362261295,-0.00843952689319849,0.008511434309184551
1706237853347291610,0.12284630537033081,9.763654708862305,-0.994205117225647,0.001713120611384511,-0.009253894910216331,0.008148258551955223
1706237853356931444,0.11667218059301378,9.763309478759766,-0.9914966225624086,-0.001322538941167295,-0.010152210481464863,0.007764357142150402
1706237853366823888,0.13622885942459106,9.760272026062013,-0.9903068542480469,-0.003688493510708213,-0.010649452917277813,0.007507897447794676
1706237853377194388,0.12337758392095567,9.766693115234375,-0.993818998336792,-0.004865032155066729,-0.01038564182817936,0.007458268664777279
1706237853387153499,0.12232565879821777,9.757912635803224,-0.9901244044303895,-0.004635329823940992,-0.00937213096767664,0.007609704975038767
1706237853406792610,0.12202804535627367,9.75554943084717,-0.9949016571044922,-0.0033411416225135326,-0.007992414757609367,0.00786744523793459
1706237853416754388,0.12686605751514438,9.757922172546388,-0.9921151995658876,-0.0004204940632916987,-0.006420135498046875,0.008040378801524639
1706237853427358018,0.12857075035572055,9.767356872558594,-0.9919381737709047,0.0005354144959710538,-0.0066926381550729275,0.007709971629083157
1706237853437023184,0.13630244135856628,9.770409584045412,-0.9990530014038086,0.001287667779251933,-0.007212178781628609,0.007201460190117359
1706237853446997906,0.13583123683929443,9.764997482299805,-0.989933967590332,0.002102520316839218,-0.007320203352719545,0.0066714659333229065
1706237853457144758,0.13992489874362948,9.765990257263185,-0.9846316576004028,0.0032952737528830767,-0.006594505626708269,0.006267180200666189
1706237853467367684,0.15212239325046542,9.765671730041506,-1.0006704330444336,0.0051318444311618805,-0.0051564802415668964,0.006213681772351265
1706237853477094462,0.1562495678663254,9.76432991027832,-0.9876629114151001,0.007844038307666779,-0.003518490120768547,0.006607124116271734
1706237853487043221,0.13910970091819763,9.776469230651857,-0.986919641494751,0.01155283022671938,-0.002162716817110777,0.007272761315107346
1706237853497223962,0.13647237420082092,9.763670921325685,-1.0003283023834229,0.01580946333706379,-0.0012275137705728412,0.008001153357326984
1706237853513611480,0.1248702183365822,9.761282920837404,-0.9894809722900391,0.019365321844816208,-0.0006252459133975208,0.008600514382123947
1706237853516844573,0.12207801640033722,9.766019821166992,-0.9989291429519653,0.020719951018691063,-0.00040515855653211474,0.008816230110824108
1706237853526719369,0.12985368072986606,9.76399040222168,-0.9905122518539429,0.019010137766599655,-0.0007209309260360897,0.008501042611896992
1706237853536636906,0.13476628065109253,9.770056724548342,-0.9831141829490663,0.01463305577635765,-0.0014990916242823005,0.007819942198693752
1706237853546941406,0.1397422105073929,9.769366264343263,-0.9819591641426088,0.009214408695697784,-0.002358115278184414,0.007312584202736616
1706237853557441166,0.15066632628440857,9.773455619812013,-0.9857815504074097,0.004873762372881174,-0.0028015116695314646,0.007648448459804058
1706237853567185758,0.13830171525478366,9.760609626770021,-0.9831247925758363,0.0032587589230388403,-0.002521676942706108,0.009114887565374374
1706237853581368906,0.13736176490783691,9.757238388061523,-0.9851117730140687,0.004774302709847689,-0.0017226067138835788,0.011394000612199306
1706237853587360388,0.12658099830150607,9.766016960144045,-0.9839327931404115,0.008346673101186752,-0.0011023689294233918,0.013826413080096245
1706237853601981758,0.12816938757896423,9.773101806640625,-0.9826536178588867,0.012001072987914085,-0.0012256974587216973,0.0158041100949049
1706237853608009369,0.11860870569944383,9.772738456726076,-0.9752801656723022,0.013889482244849205,-0.0019007910741493106,0.01705949194729328
1706237853618268369,0.10436838865280151,9.76766872406006,-0.977576494216919,0.012971736490726471,-0.0023838914930820465,0.017777493223547935
1706237853626718092,0.0940251722931862,9.781500816345217,-0.9672461152076722,0.008989345282316208,-0.002075285417959094,0.018453221768140793
1706237853637165740,0.0968649834394455,9.76831912994385,-0.9705338478088379,0.0022086191456764936,-0.0008312893914990127,0.019611824303865433
1706237853647071721,0.10217452794313432,9.781846046447756,-0.9748088121414185,-0.00650485884398222,0.0011309392284601927,0.021521758288145065
1706237853656636129,0.09049478918313981,9.781477928161623,-0.9647511839866639,-0.01562914438545704,0.0034380375873297453,0.024003634229302406
1706237853666673721,0.09262677282094957,9.780130386352539,-0.972624957561493,-0.023548057302832603,0.0058086407370865345,0.026578975841403008
1706237853676682721,0.08686258643865587,9.774736404418945,-0.9704630970954896,-0.029326360672712326,0.00805837195366621,0.028786752372980118
1706237853686941443,0.08795511722564697,9.778099060058594,-0.9664966464042665,-0.032928213477134705,0.009900406934320927,0.030324861407279968
1706237853697153703,0.09076365083456041,9.781137466430664,-0.9651170969009399,-0.03488145396113396,0.011022806167602539,0.0311540886759758
1706237853707094203,0.09033766388893127,9.77405643463135,-0.9732494354248047,-0.03580254316329956,0.011359626427292824,0.03151161968708038
1706237853718018147,0.10306567698717119,9.776379585266115,-0.9577661752700806,-0.03605356439948082,0.01108306460082531,0.03169313445687294
1706237853727424406,0.10127711296081543,9.775068283081055,-0.9607179164886475,-0.03561795502901077,0.010395336896181107,0.03197716921567917
1706237853736557684,0.09631224721670152,9.773379325866701,-0.9709103107452393,-0.03429505601525307,0.009462445043027401,0.0326436348259449
1706237853747328054,0.09807056933641435,9.779104232788086,-0.9758952260017396,-0.032156120985746384,0.008456283248960972,0.03364339843392372
1706237853756808684,0.0891452804207802,9.776722908020021,-0.972192943096161,-0.029768548905849457,0.007593370974063873,0.03438007831573486
1706237853766780628,0.10127115249633789,9.793299674987795,-0.9795332551002504,-0.027914319187402725,0.007182728964835405,0.03414269909262657
1706237853777797610,0.09941108524799347,9.77977180480957,-0.9779958724975586,-0.027060886844992638,0.007608138024806976,0.03263265639543533
1706237853786492758,0.12033104151487352,9.778091430664062,-0.9733799695968628,-0.02695976383984089,0.009037161245942116,0.030080359429121017
1706237853797464980,0.12233103811740875,9.77508544921875,-0.9765402674674989,-0.02663632296025753,0.011037351563572884,0.027133027091622353
1706237853807355795,0.13126911222934726,9.772035598754883,-0.9893440604209901,-0.024841416627168655,0.012693257071077824,0.024512270465493202
1706237853817697610,0.13520647585392,9.78282356262207,-0.9874621629714966,-0.02074596844613552,0.013224443420767784,0.022480595856904984
1706237853826465221,0.13220730423927307,9.7777795791626,-0.986586332321167,-0.014413216151297092,0.012522566132247448,0.020731912925839424
1706237853837267628,0.14123038947582248,9.774410247802734,-0.9893566370010376,-0.006770322564989328,0.011127250269055367,0.01887359842658043
1706237853847731443,0.14686331152915955,9.764285087585451,-0.9900493621826172,0.0009022806189022958,0.00962870754301548,0.01680815778672695
1706237853856869110,0.15962573885917664,9.779843330383303,-0.9994814395904541,0.007701151538640261,0.008203702978789806,0.014637530781328678
1706237853867018258,0.16010180115699768,9.763626098632812,-0.9982825517654419,0.01350219827145338,0.006794234737753868,0.012395855970680714
1706237853876787814,0.15813721716403964,9.77038097381592,-1.0036683082580566,0.01869661547243595,0.005391260143369436,0.009974244050681591
1706237853887215314,0.15271499752998352,9.769389152526857,-1.0088869333267214,0.02353731170296669,0.00401380704715848,0.007241388782858849
1706237853896987980,0.15731652081012729,9.77511215209961,-1.0039775371551514,0.027763232588768005,0.002742987358942628,0.004156662616878748
1706237853908768888,0.14783641695976257,9.773083686828615,-0.9990969896316528,0.03081716224551201,0.001827666419558227,0.0009062905446626246
1706237853916676480,0.15236969292163852,9.769706726074219,-1.0025507211685183,0.03226475417613983,0.0015332720940932631,-0.0019930354319512844
1706237853926771295,0.14900755882263184,9.766695022583008,-1.0084586143493652,0.032037463039159775,0.0018388015450909734,-0.003967291675508022
1706237853936744221,0.16621646285057068,9.757248878479006,-1.0089035034179688,0.03056681901216507,0.00230377702973783,-0.004884609021246433
1706237853946835147,0.15221655368804932,9.755537986755373,-1.0062605142593386,0.02877151407301426,0.0022069071419537067,-0.005148512311279774
1706237853957081110,0.1614457070827484,9.765000343322756,-1.0042022466659548,0.027639085426926613,0.0009436149266548455,-0.0052726916037499905
1706237853966753536,0.14823493361473083,9.760932922363281,-1.0056186914443972,0.027626637369394302,-0.0014758356846868992,-0.0054814922623336315
1706237853977057462,0.1558584421873093,9.766690254211428,-1.004148602485657,0.02846154384315014,-0.004330208525061607,-0.0057071479968726635
1706237853987601239,0.15730856359004977,9.759953498840334,-1.0224667787551882,0.02949300967156887,-0.00667409086599946,-0.005888732150197029
1706237853997482702,0.15736541152000427,9.752851486206055,-1.0075733661651611,0.03024270012974739,-0.007968412712216377,-0.006250272039324045
1706237854007161295,0.14352917671203613,9.757938385009766,-1.011632561683655,0.03057488426566124,-0.008384696207940578,-0.007126511540263891
1706237854017393832,0.14137479662895203,9.756242752075195,-1.017841458320618,0.030347641557455063,-0.008531017228960991,-0.008538980036973953
1706237854027252406,0.1485155671834946,9.756556510925295,-1.0078773498535156,0.029238378629088402,-0.008893845602869987,-0.010195726528763771
1706237854037869276,0.14023339748382568,9.753176689147951,-1.0016651153564453,0.027114419266581535,-0.009606927633285522,-0.011673319153487682
1706237854046453110,0.13495168089866638,9.76602554321289,-1.0082688331604004,0.024259652942419052,-0.010535656474530697,-0.0124292504042387
1706237854057670962,0.13672247529029846,9.754188537597656,-1.0019893646240234,0.021077029407024384,-0.011350583285093307,-0.012038945220410824
1706237854066546925,0.12375495582818986,9.746097564697266,-1.0096354484558105,0.017802797257900238,-0.011775816790759563,-0.010551733896136284
1706237854079799721,0.12546101212501526,9.746770858764648,-1.0076271295547488,0.01446355041116476,-0.012007437646389008,-0.008504871279001236
1706237854086541036,0.12148088216781616,9.76399898529053,-1.003291726112366,0.010953068733215332,-0.012562263756990433,-0.006615241523832083
1706237854107369850,0.12835928797721863,9.754230499267578,-1.0038918256759646,0.0040368554182350636,-0.014502163045108318,-0.0047281403094530106
1706237854117463128,0.12482015788555145,9.75050449371338,-1.008397102355957,0.001815458876080811,-0.014988933689892292,-0.004495712928473949
1706237854127406869,0.11732731014490129,9.752214431762695,-1.0125517845153809,0.0008759932243265212,-0.015036305412650108,-0.0045200129970908165
1706237854137145221,0.1253725290298462,9.75047492980957,-0.9923269748687744,0.0007006606319919229,-0.014956768602132797,-0.004820093512535095
1706237854147283813,0.12651242315769198,9.756265640258789,-1.0054502487182617,0.000560001761186868,-0.015016773715615273,-0.005231000948697329
1706237854156537517,0.12621790170669556,9.762316703796388,-1.0057244300842285,0.0001496356271672994,-0.015196147374808788,-0.005350498482584953
1706237854167073369,0.12896947562694552,9.750146865844727,-0.9919205904006958,-0.0003464398323558271,-0.01518920436501503,-0.004943067207932472
1706237854176728943,0.12900485098361972,9.767389297485352,-1.0032230615615847,-0.0005822554812766612,-0.014709028415381908,-0.004030037205666304
1706237854186873295,0.12493423372507097,9.758262634277344,-0.9988586306571962,-0.00033904568408615887,-0.01368410512804985,-0.002724513877183199
1706237854196859017,0.11680063605308533,9.750155448913576,-0.9978340864181519,0.00027152811526320875,-0.012247511185705662,-0.001264647813513875
1706237854209177758,0.11447610706090929,9.768042564392092,-0.994736909866333,0.0007277113036252558,-0.01077033020555973,6.968765228521079e-05
1706237854217369813,0.10763297230005266,9.758263587951662,-0.998702108860016,0.000304786313790828,-0.00963302981108427,0.001159096253104508
1706237854227161406,0.10279160737991333,9.756914138793945,-0.9982580542564393,-0.001553855836391449,-0.008911218494176865,0.0020039710216224194
1706237854237175628,0.09417284280061723,9.757925987243654,-1.003678798675537,-0.005029761232435703,-0.008541992865502834,0.002551113488152623
1706237854247182110,0.10602524131536485,9.76568126678467,-0.9940080642700195,-0.009889159351587296,-0.008499231189489365,0.002684804843738675
1706237854256661795,0.1049974113702774,9.759587287902834,-0.9903734326362611,-0.01539351511746645,-0.008627797476947308,0.0024591193068772554
1706237854267434443,0.10380155593156816,9.766664505004883,-0.985714614391327,-0.020381413400173187,-0.008623185567557812,0.0023038145154714584
1706237854277613017,0.12243770807981492,9.75318241119385,-0.9877488017082215,-0.02371279150247574,-0.008289172314107418,0.002842293819412589
1706237854286880721,0.13095323741436007,9.753869056701662,-0.9969658851623535,-0.024555863812565804,-0.007784184068441391,0.004382454790174961
1706237854296848961,0.11770306527614594,9.763306617736818,-0.9873681664466859,-0.022462105378508568,-0.007555857300758362,0.006581338122487068
1706237854308939184,0.11647859215736389,9.762980461120607,-0.9873172044754028,-0.01779017224907875,-0.007857566699385643,0.008726603351533413
1706237854317066517,0.11952923238277435,9.762968063354492,-0.9897820949554443,-0.011968042701482773,-0.008415774442255497,0.010324329137802124
1706237854327283665,0.11490426212549211,9.761951446533203,-0.9822782278060913,-0.006830538623034954,-0.008723273873329163,0.011307388544082642
1706237854336655906,0.10205160081386566,9.766351699829102,-0.9830744862556459,-0.0037450019735842943,-0.008480706252157688,0.011907055974006653
1706237854350988276,0.1025916039943695,9.771071434020998,-0.9895859956741333,-0.003383263247087598,-0.007650136947631836,0.012459379620850086
1706237854368836165,0.1036481335759163,9.77276134490967,-0.989549219608307,-0.01013993751257658,-0.004385625012218952,0.01386234350502491
1706237854380559128,0.1018165647983551,9.775109291076662,-0.9859906435012817,-0.01522678043693304,-0.0021450140047818422,0.014436117373406887
1706237854388969017,0.11105607450008392,9.770730018615724,-0.9887086153030396,-0.019705981016159058,0.00021406299492809922,0.014686529524624348
1706237854407479036,0.11234627664089203,9.775097846984865,-0.9803764820098877,-0.02357271872460842,0.003611397696658969,0.014415000565350056
1706237854419252739,0.1210717484354973,9.775102615356445,-0.9787243008613588,-0.022571096196770668,0.003795456839725375,0.014642550610005856
1706237854430754813,0.11497475206851959,9.766695976257326,-0.9814115166664125,-0.020034970715641975,0.0031791781075298786,0.01555908564478159
1706237854437437869,0.12055227905511857,9.76295566558838,-0.97625070810318,-0.016553860157728195,0.00234985607676208,0.017044680193066597
1706237854446656498,0.13574607670307162,9.77004623413086,-0.9842569231987001,-0.012749426066875458,0.001560079283080995,0.01871241070330143
1706237854457095887,0.12798462808132174,9.766668319702148,-0.9753358364105225,-0.008961296640336514,0.0007733401726000011,0.0201445072889328
1706237854527009665,0.14154829084873202,9.770708084106445,-0.9748889207839966,0.01292784046381712,0.0015437859110534191,0.023847388103604317
1706237854536779276,0.13134412467479709,9.773400306701662,-0.9820489883422852,0.013859509490430355,0.0020879691001027822,0.024537578225135803
1706237854547128072,0.13343843817710876,9.776764869689943,-0.9681572914123535,0.014186429791152477,0.0025547503028064966,0.02500372938811779
1706237854566931239,0.14463457465171814,9.771363258361818,-0.9710308313369751,0.012562496587634087,0.0038307555951178074,0.02500414475798607
1706237854576709276,0.1422182470560074,9.775785446166992,-0.9808873534202577,0.011032641865313053,0.00474963802844286,0.024890411645174026
1706237854712012665,0.11875002831220628,9.776062965393068,-0.9839717149734497,0.010186013765633106,-0.0009545518551021814,0.01676373928785324
1706237854717195517,0.1331937611103058,9.77003288269043,-0.9932528138160707,0.004787922371178865,0.0006688344874419272,0.015004897490143776
1706237854726914554,0.12958604097366333,9.774102210998537,-0.9848285317420961,-0.00043721828842535615,0.002249147742986679,0.013369047082960606
1706237854767359572,0.12760403752326965,9.781501770019531,-0.9758741855621338,-0.0005268887616693974,0.002661278937011957,0.01260053738951683
1706237854777171109,0.12388725578784943,9.778131484985352,-0.9869995713233949,0.002733859233558178,0.0007395740249194205,0.014453232288360596
1706237854806724795,0.1268356442451477,9.776431083679201,-0.9790139198303223,0.005078052636235952,0.0016189003363251686,0.019386164844036102
1706237854817325665,0.13174675405025485,9.78115749359131,-0.9859049916267396,0.0033430526964366436,0.004577580839395523,0.019473478198051453
1706237854827610813,0.12274328619241716,9.782172203063967,-0.9826943278312684,0.0015801072586327791,0.0075974115170538425,0.019050631672143936
1706237854838813480,0.12653814256191256,9.778779983520508,-0.9736855626106263,0.0004255783569533378,0.010067323222756386,0.018443768844008446
1706237854847352832,0.12561611831188205,9.779458045959474,-0.9818153381347656,-3.864979134959867e-06,0.011743235401809216,0.01800384372472763
1706237854857496239,0.13685740530490878,9.777764320373537,-0.9731236696243286,0.00011215086851734668,0.012578601017594337,0.0180779118090868
1706237854867407739,0.13254339993000033,9.781819343566896,-0.9774734377861024,0.0006926979986019433,0.012664987705647945,0.01881134882569313
1706237854886592943,0.13711482286453247,9.77034091949463,-0.9819555878639222,0.0035107845906168222,0.011185823008418083,0.02112051658332348
1706237854897495239,0.15110784769058228,9.770025253295898,-0.9849598407745361,0.005650460720062256,0.009552089497447014,0.021433839574456215
1706237854907603276,0.13329389691352844,9.772027015686037,-0.9839988350868226,0.00815737247467041,0.007322980556637049,0.020681733265519142
1706237854917734035,0.13689933717250827,9.769010543823242,-0.987947165966034,0.01083746924996376,0.00490775378420949,0.0191351268440485
1706237854927186794,0.1493959873914719,9.774080276489258,-0.995507001876831,0.013218019157648087,0.002854058053344488,0.01723523810505867
1706237854946910331,0.14394097030162814,9.772391319274904,-0.9958133101463319,0.015894319862127304,0.0013543220702558756,0.013267263770103455
1706237854956909165,0.1339949369430542,9.765674591064453,-1.0080227851867676,0.01631253957748413,0.002040676074102521,0.011323634535074234
1706237854966788628,0.14593970775604248,9.769365310668945,-0.9994826316833496,0.016247930005192757,0.0031097885221242905,0.009230594150722027
1706237854977531517,0.12234430760145189,9.757885932922365,-1.001662850379944,0.015759121626615524,0.003790165763348341,0.006727267522364855
1706237854987163165,0.14647389948368075,9.76496982574463,-1.0002388954162598,0.014856761321425438,0.003465652000159025,0.0038935053162276745
1706237854997554368,0.13907338678836825,9.76701545715332,-1.0016480684280398,0.013632658869028091,0.001974378479644656,0.0011917470255866647
1706237855010072035,0.13896410167217257,9.76295280456543,-1.0048282146453857,0.012474175542593002,-0.0002698414318729192,-0.0009029799839481711
1706237855017104776,0.1521415561437607,9.75790023803711,-1.010383725166321,0.011900649406015873,-0.002568743657320738,-0.0022462238557636738
1706237855036639906,0.14927318692207336,9.757559776306154,-0.9977236390113832,0.013810347765684128,-0.005887429229915142,-0.0037819601129740477
1706237855047761202,0.15416820347309115,9.754854202270508,-1.005360007286072,0.016259370371699333,-0.00699686398729682,-0.004340136423707008
1706237855057035943,0.14346601068973544,9.768009185791016,-1.0028963088989258,0.01916448399424553,-0.007944541051983833,-0.004559686873108149
1706237855066751683,0.1316008120775223,9.77173709869385,-1.006038546562195,0.021813929080963135,-0.008628799580037594,-0.0043809483759105206
1706237855076935665,0.1341509222984314,9.754859924316406,-1.0040613412857058,0.023251840844750404,-0.00865737721323967,-0.004001894034445286
1706237855087659572,0.1242901459336281,9.755876541137695,-1.007336497306824,0.02260851114988327,-0.007905391044914722,-0.0037021783646196127
1706237855097582720,0.13330097496509555,9.759928703308107,-1.0029693841934206,0.019653141498565674,-0.006915466859936714,-0.0036731292493641376
1706237855107304368,0.1270587146282196,9.763324737548828,-1.0129706859588623,0.015009388327598572,-0.006395535543560982,-0.003967335447669029
1706237855118873924,0.13612708449363708,9.754194259643555,-1.0026354789733887,0.009902842342853546,-0.0065787965431809425,-0.004556997679173946
1706237855127425387,0.117203488945961,9.76768684387207,-1.0049173831939697,0.005581356585025787,-0.007242720108479261,-0.0053315358236432076
1706237855137008072,0.13961604237556458,9.754551887512209,-1.0096310377120974,0.0027426518499851227,-0.008011171594262123,-0.006057615391910076
1706237855146740868,0.13852739334106445,9.758264541625977,-1.0106701850891113,0.0015249882126227021,-0.008591233752667904,-0.006563401781022549
1706237855156631387,0.1388942003250122,9.759599685668945,-1.0077121257781982,0.0019156788475811481,-0.008939184248447418,-0.006924514193087816
1706237855176959387,0.12937892973423007,9.741370201110842,-1.0035644769668581,0.006588950753211975,-0.009363515302538872,-0.007969594560563564
1706237855187566572,0.1333754062652588,9.75015163421631,-1.0076309442520144,0.009371883235871792,-0.009860157035291195,-0.00872495025396347
1706237855197283294,0.13507781922817233,9.743759155273438,-1.012561559677124,0.011201064102351665,-0.011118180118501186,-0.0093362582847476
1706237855207491794,0.11633215844631195,9.739705085754396,-1.0134363174438477,0.01159775909036398,-0.013381795957684517,-0.009628054685890675
1706237855217659535,0.13091050088405612,9.746784210205078,-1.0105930566787722,0.010510595515370369,-0.01647225394845009,-0.009747924283146858
1706237855226995961,0.1411874443292618,9.751838684082031,-1.0073974132537842,0.008264731615781784,-0.01982824131846428,-0.009929734282195568
1706237855236671035,0.13775315880775452,9.754901885986328,-1.0036535263061523,0.005784647539258003,-0.022572482004761696,-0.010154996067285538
1706237855248022998,0.13560596108436584,9.753211975097656,-1.0138866901397705,0.004295766819268465,-0.02383021079003811,-0.010173768736422062
1706237855257542720,0.1346762478351593,9.755908966064453,-1.0119255781173708,0.0044651273638010025,-0.023219868540763855,-0.009870543144643307
1706237855267629887,0.1268818974494934,9.753884315490724,-1.0127980709075928,0.005982460919767618,-0.021051842719316483,-0.009487022645771503
1706237855277065054,0.13064634799957275,9.75625228881836,-1.016904950141907,0.007863187231123447,-0.018106680363416672,-0.009416814893484116
1706237855286888109,0.14044666290283203,9.761323928833008,-1.007364273071289,0.009132112376391888,-0.015210040844976902,-0.009884598664939404
1706237855297026905,0.13098350167274475,9.754915237426758,-1.0058301687240603,0.009452950209379196,-0.01287987269461155,-0.010742556303739548
1706237855306836813,0.14696750044822693,9.764388084411623,-1.0160346031188965,0.009189341217279434,-0.011256621219217777,-0.011517791077494621
1706237855327155535,0.1387079656124115,9.74277973175049,-1.0078346729278564,0.009254914708435535,-0.009783931076526642,-0.011797776445746422
1706237855337437072,0.13605880737304688,9.753219604492188,-1.005662798881531,0.01001047808676958,-0.010073126293718815,-0.011554875411093235
1706237855347192442,0.13080875575542453,9.753571510314943,-1.0047922134399414,0.010891133919358253,-0.011336032301187515,-0.011099210940301418
1706237855367660535,0.1401856541633606,9.764040946960451,-1.0007113218307497,0.011358575895428658,-0.015227575786411762,-0.009016946889460087
1706237855377507590,0.1258126646280289,9.758637428283693,-1.0026285648345947,0.010656366124749184,-0.016262207180261612,-0.007431018631905317
1706237855388195831,0.1275738775730133,9.754247665405273,-0.9965049028396606,0.009586814790964127,-0.01593332178890705,-0.005669687874615192
1706237855397148165,0.13316191732883456,9.763674736022951,-0.9861664175987245,0.008293231949210167,-0.014415605925023556,-0.0037970233242958784
1706237855407101776,0.13322019577026367,9.76906967163086,-0.988627851009369,0.006901698652654886,-0.012286126613616943,-0.0016474253498017788
1706237855416965702,0.12055744975805284,9.772459030151367,-0.9866519570350648,0.005667770281434059,-0.009928986430168152,0.0010434080613777041
1706237855427554813,0.1214985027909279,9.756928443908693,-0.990106463432312,0.004678268451243639,-0.007424861192703247,0.004269488621503115
1706237855437420627,0.11253923922777177,9.776144027709961,-0.9817444682121278,0.0036002008710056543,-0.004943502135574818,0.007636628113687038
1706237855448380776,0.11357668787240983,9.770405769348146,-0.9748993515968324,0.0019100409699603915,-0.0027864216826856136,0.010705783031880856
1706237855457239127,0.13442787528038025,9.76534652709961,-0.9849668741226196,-0.0005942097632214427,-0.0010799671290442348,0.013353332877159119
1706237855469135702,0.12508757412433627,9.777511596679688,-0.9800185561180116,-0.0033496508840471506,0.00021066605404485017,0.015643883496522903
1706237855477378627,0.12124700099229814,9.772758483886719,-0.9693161845207215,-0.005282856523990631,0.0011775116436183453,0.01757911406457424
1706237855487595239,0.1161811500787735,9.780855178833008,-0.9751254916191102,-0.00577353872358799,0.002051656600087881,0.019242024049162865
1706237855498240905,0.11028289794921875,9.76600456237793,-0.9739870429039003,-0.005216655787080526,0.003084479598328471,0.02087397873401642
1706237855507100794,0.10998216271400452,9.770054817199709,-0.965782642364502,-0.0046653361059725285,0.004221161361783743,0.022628573700785637
1706237855517294498,0.10957039147615434,9.783860206604006,-0.9668099880218506,-0.005097666289657354,0.005113575141876936,0.024526823312044144
1706237855536948739,0.09661020338535309,9.781167984008789,-0.9668844938278198,-0.009731091558933258,0.006017476320266724,0.02865372784435749
1706237855546971701,0.10383518040180206,9.786201477050781,-0.950513482093811,-0.013169131241738796,0.0067022256553173065,0.030600519850850105
1706237855556946924,0.10931382328271867,9.777762413024904,-0.952652096748352,-0.01671025902032852,0.007892259396612644,0.03252188116312027
1706237855577659720,0.10863538086414337,9.785198211669922,-0.9638298153877259,-0.021891729906201363,0.011341189965605736,0.03744248300790787
1706237855606982164,0.11509230732917786,9.781813621520998,-0.9629862308502197,-0.020944297313690186,0.014639991335570812,0.041448913514614105
1706237855617849220,0.10416316986083984,9.782844543457031,-0.9722205996513368,-0.01893828995525837,0.014321762137115002,0.04085156321525574
1706237855626932813,0.10628993809223175,9.780798912048342,-0.9649854302406312,-0.01698409952223301,0.01345205307006836,0.039658837020397186
1706237855636768331,0.10735082626342773,9.78385639190674,-0.9709289073944092,-0.015689577907323837,0.012549586594104767,0.0379837341606617
1706237855647081276,0.11042250692844391,9.772704124450685,-0.9687178134918213,-0.015363650396466255,0.01199853140860796,0.03599989414215088
1706237855657005405,0.10715075582265855,9.7841796875,-0.9714250564575195,-0.0158392246812582,0.011817626655101776,0.03398197516798973
1706237855677051294,0.11830051988363267,9.784178733825685,-0.9739397764205933,-0.01741684228181839,0.011652713641524315,0.030652236193418503
1706237855689296238,0.12453581392765045,9.775755882263185,-0.9745326638221742,-0.017645742744207382,0.011411466635763645,0.029383467510342598
1706237855696736183,0.12041912227869035,9.780466079711914,-0.9742656946182251,-0.01682625152170658,0.011120020411908627,0.028278013691306114
1706237855707532905,0.12070830166339874,9.775407791137695,-0.9752558469772339,-0.014661548659205437,0.010843737982213497,0.027303744107484818
1706237855717989572,0.13414645195007324,9.771021842956545,-0.9747331738471986,-0.011400936171412468,0.010536995716392994,0.026478078216314316
1706237855746743164,0.12965066730976108,9.768666267395021,-0.9813712239265443,6.148045213194564e-05,0.00791195873171091,0.025273820385336876
1706237855756997090,0.1192571595311165,9.770022392272951,-0.9884381890296937,0.0028669671155512333,0.0067732748575508595,0.025017153471708298
1706237855766839442,0.12287265807390214,9.763582229614258,-0.9778656959533691,0.004298605490475893,0.005753584671765566,0.024249078705906868
1706237855782279535,0.11780570447444916,9.766307830810547,-0.985421121120453,0.004107294138520956,0.004621510393917561,0.02276426926255226
1706237855786858701,0.1432871371507645,9.761249542236328,-0.9896660447120668,0.0025603738613426685,0.0031234666239470243,0.0207708477973938
1706237855802608924,0.1471650153398514,9.774080276489258,-0.9869610071182251,0.0007052198052406311,0.0012568216770887375,0.01860363595187664
1706237855808080905,0.13744959235191345,9.767336845397951,-0.9895228147506714,0.00010414736607344821,-0.0006124755600467324,0.016481271013617516
1706237855822725924,0.14573739469051364,9.763268470764162,-0.9931827783584595,0.001809098175726831,-0.0019530336139723659,0.014535871334373951
1706237855826960368,0.1458820551633835,9.74877452850342,-0.9950021505355835,0.005650341976433992,-0.00261238613165915,0.012803357094526291
1706237855837223238,0.13755974173545837,9.763613700866701,-0.9957534074783325,0.010554437525570393,-0.003088506869971752,0.011186419986188412
1706237855847008886,0.1343594789505005,9.762942314147951,-0.9953733682632446,0.015138153918087482,-0.004001984838396311,0.009561709128320217
1706237855876854627,0.14040127396583557,9.767019271850586,-1.0060893297195437,0.01769608072936535,-0.008596029132604599,0.003840656252577901
1706237855887215998,0.13946965336799622,9.74810314178467,-1.0041298866271973,0.015784548595547676,-0.009686504490673542,0.0013899493496865034
1706237855896937498,0.14221614599227905,9.750490188598633,-1.00055468082428,0.014182821847498417,-0.010280272923409939,-0.0010686453897505999
1706237855906893183,0.13810320198535922,9.743033409118654,-0.9973718523979188,0.013394013978540897,-0.010804352350533009,-0.003061006311327219
1706237855917165979,0.1367601752281189,9.754187583923342,-1.0020364522933962,0.013374810107052326,-0.011885552667081356,-0.004109329078346491
1706237855936880923,0.13103230297565463,9.751493453979492,-1.0070108175277712,0.013792015612125397,-0.015573279932141304,-0.0030467568431049585
1706237855947797849,0.13226795196533203,9.747451782226562,-1.0031521320343018,0.013171225786209106,-0.016819050535559654,-0.0018024930031970143
1706237855956997349,0.12043255567550659,9.757915496826172,-1.0006537437438965,0.011687271296977997,-0.01716492511332035,-0.0009264261461794376
1706237855967818386,0.11943341046571733,9.74878787994385,-1.008968234062195,0.009401723742485046,-0.0168763380497694,-0.0007503403467126191
1706237855977674275,0.1310870349407196,9.761276245117188,-0.9971807599067689,0.006462692748755217,-0.01628454588353634,-0.0012284672120586038
1706237855987486535,0.12931013107299805,9.761625289916992,-1.0038260221481325,0.0033035585656762123,-0.015520531684160233,-0.002056483179330826
1706237856019623942,0.11581991612911224,9.76126003265381,-0.9916863441467285,-0.0016648912569507957,-0.011424715630710125,-0.002501097274944186
1706237856027515312,0.12035690993070604,9.768707275390625,-0.9932166934013368,-0.0017937173834070563,-0.009641274809837341,-0.001147611765190959
1706237856057761442,0.11511833965778351,9.769695281982422,-0.9917123913764955,-0.0036535533145070076,-0.004317432641983032,0.005333763547241688
1706237856067219312,0.10328744351863861,9.759574890136719,-0.9843348264694214,-0.005148328375071287,-0.002647421322762966,0.006700173951685429
1706237856076903516,0.11261140555143358,9.772059440612795,-0.9848402738571167,-0.0069441539235413074,-0.0012959985760971904,0.007451274897903204
1706237856096925516,0.12293228507041931,9.770030975341797,-0.9863219261169434,-0.011546044610440731,-0.00033135933335870504,0.009325938299298286
1706237856106848683,0.12431272864341736,9.765990257263185,-0.9852681159973145,-0.013595524244010448,-0.000507705844938755,0.011002871207892895
1706237856117083275,0.11420129984617235,9.769369125366211,-0.983405590057373,-0.014418739825487137,-0.0007840340258553624,0.01285497099161148
1706237856136765405,0.12450681626796722,9.783528327941896,-0.988079607486725,-0.011577416211366653,-0.0007757663843221962,0.015610511414706707
1706237856147755572,0.12016055732965471,9.779482841491701,-0.981850564479828,-0.009101509116590023,8.31819124869071e-05,0.016145212575793266
1706237856157199201,0.1289414614439011,9.771376609802248,-0.9833178520202637,-0.006750333122909069,0.001879543298855424,0.01615588366985321
1706237856166903405,0.12483301013708116,9.777113914489748,-0.9864345192909242,-0.00474189780652523,0.004356306046247482,0.015898440033197403
1706237856176939831,0.13056284189224243,9.773756980895998,-0.9897218346595765,-0.0030401262920349836,0.0067803882993757725,0.015600630082190037
1706237856188197534,0.12146975845098497,9.770031929016115,-0.9862920045852661,-0.0015432212967425585,0.008434068411588669,0.015266378410160542
1706237856207088146,0.1352270245552063,9.769022941589357,-0.9761639833450317,0.0006389215122908354,0.00832652673125267,0.014509124681353569
1706237856217007923,0.11717744916677476,9.767664909362795,-0.9829235076904297,0.0012263566022738814,0.0069088079035282135,0.014735978096723557
1706237856227281608,0.12680868804454806,9.782166481018068,-0.9796690940856934,0.00155186140909791,0.00515529653057456,0.01574680767953396
1706237856237198090,0.13481515645980835,9.769676208496094,-0.9883278012275697,0.001589315477758646,0.00363347795791924,0.01725444570183754
1706237856256855220,0.13006851077079773,9.764628410339357,-0.9901974201202393,0.001753328600898385,0.0026122131384909153,0.019110621884465218
1706237856266787627,0.13745011389255526,9.769688606262209,-0.99029541015625,0.0026808641850948334,0.002487536519765854,0.01843542605638504
1706237856276766886,0.14450207352638245,9.76802730560303,-0.9969143271446229,0.00426993565633893,0.0019920330960303545,0.016645949333906174
1706237856291033368,0.14143893122673035,9.761601448059084,-0.9983934164047241,0.006408568937331438,0.0011077567469328642,0.014062538743019104
1706237856296920312,0.1453000754117966,9.766996383666992,-0.9895938634872437,0.009011270478367805,1.4463043044088408e-05,0.011079089716076851
1706237856307734312,0.15203335881233215,9.766324043273928,-0.9914120435714722,0.011921794153749943,-0.0011219194857403636,0.008216988295316696
1706237856327407497,0.1535058319568634,9.775458335876467,-1.0086162090301514,0.01809847168624401,-0.0026705481577664614,0.005039350129663944
1706237856337074164,0.15001118183135986,9.767007827758789,-0.9987099170684814,0.021185075864195824,-0.002563804853707552,0.004673484247177839
1706237856346759571,0.13488911092281344,9.762962341308594,-1.0002738237380984,0.023871436715126038,-0.001764381886459887,0.00425749272108078
1706237856357029460,0.12978708744049072,9.764639854431154,-1.0075132846832275,0.02541060745716095,-0.0006919991574250162,0.003316044807434082
1706237856366917182,0.14103354513645175,9.759241104125977,-1.0021531581878662,0.02496398240327835,-2.0251687601557933e-05,0.001819238648749888
1706237856386910127,0.14992885291576388,9.753161430358888,-1.0036138296127322,0.018550729379057884,-0.0014221497112885118,-0.0019147753482684493
1706237856397799349,0.15832781791687012,9.76231575012207,-1.0053747892379763,0.015192277729511261,-0.0033423914574086666,-0.0035229141358286142
1706237856407798812,0.1444116234779358,9.758923530578615,-1.0091807842254639,0.013794192112982273,-0.0055946409702301025,-0.004662844818085432
1706237856417714942,0.14625002443790439,9.772102355957031,-1.0103772878646853,0.014870996586978436,-0.007625453174114227,-0.005385042633861303
1706237856427607960,0.14378856122493747,9.749805450439453,-1.0047180652618408,0.017653578892350197,-0.008857592940330505,-0.005927884951233864
1706237856437273016,0.14262117445468905,9.761296272277834,-0.9994357824325562,0.02068208158016205,-0.0091081028804183,-0.006425796076655388
1706237856467436201,0.11512523144483568,9.765000343322756,-1.0098685026168825,0.0209887083619833,-0.007976101711392403,-0.005158321000635624
1706237856477496701,0.12239561975002289,9.757911682128906,-1.0010308027267458,0.01724858023226261,-0.008018236607313156,-0.0036317515186965466
1706237856487700849,0.11664079129695892,9.771080017089844,-1.0105401277542116,0.011955308727920055,-0.008243586868047714,-0.0023797948379069567
1706237856497928553,0.12462565302848816,9.766362190246584,-1.0084198713302615,0.005855960305780172,-0.008245192468166351,-0.001944752293638885
1706237856507335553,0.11836603283882141,9.757905960083008,-0.9979922175407411,5.427362702903338e-05,-0.0076475003734230995,-0.0024815103970468044
1706237856517172923,0.11626314371824266,9.761655807495117,-1.0064928531646729,-0.004436669871211052,-0.00651905732229352,-0.0036449809558689594
1706237856534956423,0.12379998713731767,9.774121284484865,-1.0050973892211914,-0.007152991835027933,-0.0053275045938789845,-0.00479598343372345
1706237856537750775,0.12971985340118408,9.773473739624023,-1.007601618766785,-0.008142449893057346,-0.004324615933001041,-0.005498416721820831
1706237856546933201,0.11911989748477936,9.753549575805664,-1.0093238353729248,-0.007640286814421415,-0.0033435875084251165,-0.005755904130637646
1706237856559004979,0.12165388464927673,9.766383171081545,-1.0150305032730105,-0.006069784518331289,-0.002377130324020982,-0.005883846431970596
1706237856566946460,0.12173292785882951,9.765705108642578,-1.0127010345458984,-0.00415197154507041,-0.0018074475228786469,-0.0063066729344427586
1706237856597708460,0.11889750510454179,9.767387390136719,-1.00689971446991,-0.0021030923817306757,-0.0037219321820884943,-0.010413452982902527
1706237856607217423,0.10731977224349976,9.760277748107912,-1.0045998096466064,-0.0032351473346352577,-0.004985566716641188,-0.011383449658751488
1706237856619060534,0.12271312624216081,9.773834228515625,-1.0223777294158936,-0.0051183318719267845,-0.005978214554488659,-0.011409863829612732
1706237856637992127,0.1284092664718628,9.76537609100342,-1.0031331777572634,-0.008849727921187878,-0.005556375719606876,-0.010244958102703094
1706237856646926868,0.12635879218578341,9.75490474700928,-1.012404203414917,-0.009011070244014263,-0.004100204445421696,-0.010101442225277424
1706237856666955219,0.11912530660629272,9.756924629211428,-0.9939357638359071,-0.004805304575711489,-0.0021157932933419943,-0.009800489991903305
1706237856677618349,0.13226747512817383,9.766057014465334,-1.0020531415939333,-0.001943575101904571,-0.0027692154981195927,-0.008592614904046059
1706237856697095219,0.1410324424505234,9.767425537109375,-1.008826732635498,0.0016434892313554883,-0.006158650852739811,-0.0036205118522047997
1706237856707080590,0.1269960105419159,9.76841449737549,-0.9979794025421143,0.0025600010994821787,-0.007676918990910053,-0.0013339950237423182
1706237856717706238,0.1345757246017456,9.765330314636232,-0.990948259830475,0.003488175803795457,-0.008314079605042934,-9.336177754448727e-05
1706237856737756960,0.13291510939598083,9.762680053710938,-0.99392968416214,0.005743141286075115,-0.0061570750549435616,0.0006583056529052556
1706237856747826460,0.13255916535854342,9.770752906799318,-0.9893428683280946,0.006779693532735109,-0.004064446315169334,0.001481086714193225
1706237856757253275,0.13847672939300537,9.765350341796875,-0.9802066087722778,0.007568038068711758,-0.0021092970855534077,0.0029807521495968103
1706237856767930904,0.12808288633823398,9.75825309753418,-0.9911795854568481,0.008091779425740242,-0.0007664053118787706,0.005154663231223822
1706237856777191904,0.15254193544387817,9.76165294647217,-0.9939352869987489,0.008465313352644444,-0.00035966458381153643,0.007771561853587627
1706237856797940275,0.13535985350608826,9.765005111694336,-0.9802708625793457,0.010011646896600723,-0.002441416960209608,0.011780548840761185
1706237856819036960,0.13880646228790283,9.766345024108888,-0.976610541343689,0.011485441587865353,-0.003976010251790285,0.012422082014381886
1706237856819158145,0.1399042010307312,9.768704414367678,-0.9743213653564453,0.012926444411277771,-0.004976313095539808,0.012822827324271202
1706237856827882664,0.14141990244388583,9.755539894104006,-0.9750096201896669,0.013919062912464142,-0.0051592313684523106,0.013872981071472168
1706237856836929516,0.16301657259464267,9.76905632019043,-0.9757153987884521,0.014518581330776215,-0.004730646498501301,0.01599217765033245
1706237856877064145,0.1391650885343552,9.758212089538576,-0.9619508981704712,0.019874513149261475,-0.0001412556885043159,0.02836344577372074
1706237856887265238,0.13646052777767184,9.772053718566896,-0.9601882696151733,0.02001914568245411,0.0015611735871061683,0.031138431280851364
1706237856898882812,0.12216244637966156,9.775437355041506,-0.9612942934036255,0.01887860707938671,0.0023644347675144672,0.033690065145492554
1706237856907395627,0.13571856915950778,9.758543968200685,-0.9613066911697388,0.01654551923274994,0.0022052025888115168,0.035935673862695694
1706237856920682034,0.13754919171333313,9.75617790222168,-0.9568760395050049,0.013347521424293518,0.0014100664993748069,0.03775335103273392
1706237856937092682,0.13825789093971252,9.769331932067873,-0.9573254585266113,0.007457347121089697,-0.001517335302196443,0.03993276134133339
1706237856954436367,0.1339549720287323,9.753804206848146,-0.954950213432312,0.006089648697525263,-0.002932146890088916,0.04041850566864014
1706237856957931645,0.12728907167911532,9.764601707458498,-0.958984375,0.005917159840464592,-0.0038042678497731686,0.04074171185493469
1706237856967190349,0.14233288168907166,9.77001476287842,-0.9600304365158081,0.006538039539009333,-0.00428500771522522,0.041102614253759384
1706237856977473497,0.12580260634422302,9.762567520141602,-0.9512152671813965,0.007429708261042833,-0.004535354673862457,0.04154077544808388
1706237856997012497,0.12481637299060822,9.766266822814943,-0.9650053381919862,0.008315670304000378,-0.0040344237349927425,0.04284117370843887
1706237857007388682,0.12749849259853366,9.772367477416992,-0.9589491486549379,0.007596645969897509,-0.0032030700240284204,0.04374965280294418
1706237857017564645,0.1265731602907181,9.772723197937013,-0.9628759622573853,0.006046807859092951,-0.002059973543509841,0.04434096813201904
1706237857027067997,0.12772229313850403,9.775729179382326,-0.9577130079269409,0.004081472288817167,-0.0006705540581606328,0.044168248772621155
1706237857037107719,0.1275268793106079,9.774711608886719,-0.9539680480957031,0.0022535917814821005,0.0009261621744371951,0.04324902966618538
1706237857077209886,0.12970177829265597,9.774059295654297,-0.9719328880310059,-0.0030135540291666985,0.00784920621663332,0.03944068402051926
1706237857087525164,0.1350749135017395,9.78688144683838,-0.9662260413169862,-0.005037708207964897,0.008547027595341206,0.037615109235048294
1706237857108030645,0.13315339386463168,9.77642822265625,-0.9753213524818422,-0.005753472913056612,0.008351662196218967,0.032233718782663345
1706237857116927238,0.1300916820764542,9.774027824401857,-0.9708899259567261,-0.003410250646993518,0.008074291981756687,0.029914209619164467
1706237857127333904,0.13601407408714294,9.778783798217773,-0.9737573862075806,3.6784636904485524e-05,0.007761036977171898,0.028294041752815247
1706237857137385312,0.12435494363307953,9.773015975952148,-0.9745702147483827,0.0035800589248538017,0.007458300795406103,0.02735544927418232
1706237857147643849,0.12112245708703996,9.774686813354492,-0.9695745110511781,0.006267947144806385,0.007238846272230148,0.02694338746368885
1706237857197729793,0.13342607021331787,9.777414321899414,-0.9882091283798218,0.002737609902396798,0.005876301787793636,0.02410024218261242
1706237857207544534,0.1347262412309647,9.782166481018068,-0.9917864799499512,0.0034931183326989412,0.006253350060433149,0.02165180817246437
1706237857217411182,0.1445833146572113,9.783872604370117,-0.991652250289917,0.0054763867519795895,0.007129237055778503,0.01865883730351925
1706237857227666145,0.13237139582633972,9.77437496185303,-0.9844674468040467,0.00803952943533659,0.008428794331848621,0.015471464954316616
1706237857237564386,0.13524435460567477,9.782159805297852,-0.9873740673065186,0.010498855262994766,0.009915157221257687,0.01262959185987711
1706237857247664200,0.13381393253803256,9.777095794677734,-0.9952415823936464,0.01223683636635542,0.011189797893166542,0.010672739706933498
1706237857259272960,0.1293228566646576,9.784860610961914,-0.9992852807044984,0.012841574847698212,0.01196715235710144,0.009695052169263363
1706237857267105478,0.13551989197731018,9.768329620361328,-0.9948473572731019,0.012264680117368698,0.012211618945002556,0.00920078344643116
1706237857276981626,0.13699549436569214,9.774765014648438,-1.0051765441894531,0.010853485204279423,0.011934541165828705,0.008513562381267548
1706237857287403775,0.13313531875610352,9.761236190795898,-1.004423499107361,0.009252369403839111,0.010999134741723537,0.007181234657764435
1706237857296988386,0.14177303016185763,9.764604568481445,-0.9990633726119995,0.008110061287879944,0.009195918217301369,0.005083933472633362
1706237857307023126,0.1404133439064026,9.762944221496584,-1.0073255300521853,0.007834828458726406,0.006459479685872793,0.0024726269766688347
1706237857357493960,0.13725581765174866,9.757551193237305,-1.0171412229537966,0.014451629482209682,-0.00468833465129137,-0.007969803176820278
1706237857367829978,0.1324782371520996,9.758898735046388,-1.0120028257369997,0.014350364916026592,-0.004733093082904816,-0.009234651923179626
1706237857377843219,0.1328968107700348,9.770051956176758,-1.0204070806503298,0.01355133205652237,-0.004873022902756929,-0.01028395164757967
1706237857387164478,0.13632340729236606,9.757567405700685,-1.0200480222702029,0.012271828949451447,-0.005273567978292704,-0.011377215385437012
1706237857396993386,0.14646434783935547,9.761636734008789,-1.0223931074142458,0.01086502056568861,-0.005755340680480003,-0.01279863528907299
1706237857417095256,0.1484512984752655,9.749494552612305,-1.022337079048157,0.010128555819392204,-0.006792096886783838,-0.016384582966566086
1706237857427282663,0.14705437421798706,9.753878593444826,-1.0192675590515137,0.011707551777362823,-0.007836366072297096,-0.017615776509046555
1706237857437376367,0.12386461347341539,9.763664245605469,-1.0228183269500732,0.014280792325735092,-0.009468772448599339,-0.01815890707075596
1706237857457600293,0.12379694730043413,9.754215240478516,-1.0179939270019531,0.017545655369758606,-0.012661985121667385,-0.018618274480104446
1706237857467703719,0.14622415602207187,9.762989044189453,-1.0120793581008913,0.01601780205965042,-0.013178503140807152,-0.01902718096971512
1706237857477934645,0.129351481795311,9.756558418273928,-1.0127824544906618,0.012736409902572632,-0.012893246486783028,-0.019288521260023117
1706237857497570108,0.13360340893268588,9.759281158447266,-1.012608528137207,0.006773682776838541,-0.011307310312986374,-0.01783626712858677
1706237857507637460,0.14366373419761658,9.751531600952148,-1.0187278985977175,0.005975303240120411,-0.011011810973286629,-0.016116362065076828
1706237857517718626,0.13699832558631897,9.758290290832521,-1.0175582170486452,0.006739533040672541,-0.011352822184562683,-0.014380722306668758
1706237857527580848,0.12188865989446641,9.761645317077638,-1.0148344039916992,0.008514441549777985,-0.012059906497597694,-0.01328141987323761
1706237857547998441,0.1220407634973526,9.757603645324709,-1.0144163370132449,0.01100109051913023,-0.012581326067447662,-0.013618189841508865
1706237857557360515,0.12885557115077975,9.74952030181885,-1.0181207656860352,0.010076570324599743,-0.011888395994901657,-0.014296642504632473
1706237857575469219,0.12788864970207214,9.761324882507326,-1.0140414237976074,0.007769791875034571,-0.01099619921296835,-0.0148182837292552
