Timestamp,IMU_Raw_x,IMU_Raw_y,IMU_Raw_z,IMU_Linear_Acc_X,IMU_Linear_Acc_Y,IMU_Linear_Acc_Z
1706236375496932885,0.1823237091302872,9.73488521575928,-0.9891458749771118,-0.004437188617885113,0.011557864025235176,0.002758461283519864
1706236375507303181,0.18857119977474215,9.76736354827881,-1.0061976909637451,-0.0022548979613929987,0.016060588881373405,0.0054620420560240746
1706236375517365144,0.19327743351459506,9.758263587951662,-1.0276260375976562,0.002280432265251875,0.017628366127610207,0.008304858580231667
1706236375527398126,0.18477879464626315,9.738018035888672,-1.0271329879760742,0.00865844264626503,0.015912260860204697,0.010589885525405407
1706236375537267292,0.1787053346633911,9.75224494934082,-1.0495129823684695,0.015629231929779053,0.011849523521959782,0.01099329348653555
1706236375546938533,0.17396453022956848,9.771440505981445,-1.0232421159744265,0.02149718999862671,0.006765826605260372,0.008366634137928486
1706236375557368755,0.19357855618000033,9.785980224609375,-1.048780918121338,0.02483394183218479,0.0024351729080080986,0.0027285777032375336
1706236375568240626,0.17517444491386414,9.755905151367188,-1.0404119491577148,0.025313060730695724,0.0008419771329499781,-0.0046770330518484116
1706236375577380811,0.19309422373771667,9.75529670715332,-1.0482227802276611,0.02378794364631176,0.0027642566710710526,-0.012240604497492313
1706236375587631015,0.17505252361297607,9.780906677246094,-1.0514297485351562,0.02156677283346653,0.0070053888484835625,-0.018770214170217514
1706236375597498922,0.15889906883239746,9.790327072143555,-1.0324183702468874,0.019544946029782295,0.01174967736005783,-0.02365214377641678
1706236375607472348,0.17627418041229248,9.747480392456055,-1.0403486490249636,0.017702586948871613,0.016062848269939423,-0.026574453338980675
1706236375617539681,0.17035284638404846,9.769795417785646,-1.068861961364746,0.015536202117800713,0.01946229301393032,-0.027511321008205414
1706236375627752570,0.18687084317207336,9.729253768920898,-1.0503088235855105,0.013019577600061893,0.02104576677083969,-0.027233218774199486
1706236375636703126,0.17958489060401917,9.753605842590334,-1.0610526800155642,0.010874737985432148,0.01979120261967182,-0.0271541029214859
1706236375647443385,0.18728290498256686,9.750569343566896,-1.058058500289917,0.010020589455962181,0.01543711218982935,-0.02829499915242195
1706236375657675996,0.18325226008892062,9.767771720886232,-1.0414313077926638,0.010919938795268536,0.00911073200404644,-0.030665112659335136
1706236375668442348,0.17640148103237155,9.776269912719727,-1.072169303894043,0.013288010843098164,0.0031351589132100344,-0.03346835821866989
1706236375677186941,0.18922136723995212,9.768768310546875,-1.0382061004638672,0.016245536506175995,-5.7268225646112114e-05,-0.03578643500804901
1706236375687751181,0.1684952974319458,9.771841049194336,-1.0690742731094363,0.01879075914621353,0.0007826578803360462,-0.037126313894987106
1706236375697552107,0.17981696128845215,9.764735221862795,-1.0532987117767334,0.020181117579340935,0.005098172463476658,-0.037498973309993744
1706236375707612385,0.17614981532096863,9.745502471923828,-1.0556623935699463,0.020076638087630272,0.010888290591537952,-0.0372944213449955
1706236375717646663,0.156061127781868,9.759357452392578,-1.0730078220367432,0.018563900142908096,0.015619155019521713,-0.0370306521654129
1706236375727499792,0.16870617866516113,9.760702133178711,-1.0714902877807617,0.01589633896946907,0.017419612035155296,-0.037261251360177994
1706236375737639552,0.16164395213127136,9.769162178039553,-1.0712409019470215,0.012317569926381111,0.01609904132783413,-0.03857355937361717
1706236375747336200,0.15190647542476657,9.757022857666016,-1.0710898637771609,0.008211895823478699,0.01302641537040472,-0.041206277906894684
1706236375757407718,0.16756099462509155,9.755342483520508,-1.073547959327698,0.004065043292939663,0.009909301996231079,-0.044756628572940826
1706236375768852718,0.1661813706159592,9.75771236419678,-1.068698287010193,0.00040324023575522006,0.007700514979660511,-0.048425521701574326
1706236375777435774,0.1713475733995438,9.757037162780763,-1.0718398094177246,-0.002107745036482811,0.006486978381872177,-0.05142287537455559
1706236375787771626,0.1678583025932312,9.772213935852053,-1.0582057237625124,-0.0028903710190206766,0.006048626732081175,-0.05318766459822655
1706236375797535348,0.16807779669761658,9.771569252014162,-1.080498814582825,-0.0018871978390961885,0.0063804504461586475,-0.05349135771393776
1706236375807329700,0.17351746559143066,9.75738048553467,-1.0881450176239014,0.0003612346772570163,0.007671878207474947,-0.052710648626089096
1706236375817181385,0.16481903195381165,9.757415771484375,-1.0969978570938113,0.003039642935618758,0.009726490825414658,-0.05204524099826813
1706236375827355978,0.1690298765897751,9.752329826354982,-1.089703440666199,0.005385296419262886,0.011664889752864838,-0.05298610031604767
1706236375836759848,0.1639765501022339,9.741880416870117,-1.0793132781982422,0.0068400404416024685,0.012378993444144726,-0.05619540438055992
1706236375847520977,0.15365833044052124,9.750316619873047,-1.084373950958252,0.007095754612237215,0.011134647764265537,-0.06088775023818016
1706236375856922515,0.15162624418735507,9.745904922485352,-1.07092821598053,0.005991513840854168,0.007934164255857468,-0.06533098965883255
1706236375866939570,0.16029828786849976,9.76045322418213,-1.074844002723694,0.0035047722049057484,0.0036229677498340607,-0.06787993013858795
1706236375877379515,0.13560155034065247,9.767184257507326,-1.0658543109893799,-6.94025366101414e-05,-0.00033486433676443994,-0.06767609715461731
1706236375887462126,0.13608928024768832,9.755735397338867,-1.0717275142669678,-0.004308884963393211,-0.002427874132990837,-0.06483493000268936
1706236375897335903,0.16130842268466952,9.757113456726076,-1.0894609689712527,-0.008925815112888813,-0.0019360632868483663,-0.060379479080438614
1706236375907280403,0.15011031925678256,9.753363609313967,-1.0801539421081543,-0.013347159139811993,0.0005833109607920051,-0.05601681023836136
1706236375917097737,0.14781352877616882,9.761815071105959,-1.072798252105713,-0.016548490151762962,0.0037689877208322287,-0.053399164229631424
1706236375927113514,0.1310690939426422,9.765565872192383,-1.1030075550079346,-0.017938299104571342,0.006442572921514511,-0.05323009565472603
1706236375937295126,0.1327298879623413,9.746973991394045,-1.0862267017364502,-0.018097570165991783,0.008132600225508213,-0.055315423756837845
1706236375946959977,0.1268199533224106,9.75573253631592,-1.074300765991211,-0.018386319279670715,0.008775291033089161,-0.0590108260512352
1706236375957276311,0.1335984170436859,9.746985435485842,-1.0809764862060547,-0.019935358315706253,0.008312069810926914,-0.06311769038438797
1706236375967215514,0.1325835883617401,9.762148857116701,-1.0669003725051882,-0.022939112037420273,0.006825922057032585,-0.06606645882129669
1706236375976936737,0.13878135383129123,9.743257522583008,-1.054899573326111,-0.026646282523870468,0.0047651189379394054,-0.06660965830087662
1706236375987075774,0.12976022064685824,9.765850067138672,-1.0604362487792969,-0.029910434037446976,0.002768795471638441,-0.06417123228311539
1706236375996861996,0.13478294014930725,9.755756378173828,-1.0639520883560183,-0.031901564449071884,0.0014174336101859808,-0.05901384353637695
1706236376007102607,0.1339225918054581,9.740188598632812,-1.0462285280227663,-0.03246699273586273,0.0010325282346457243,-0.05229927971959114
1706236376017196589,0.13375204801559448,9.751368522644045,-1.070403814315796,-0.031963497400283813,0.0013344092294573784,-0.04557500407099724
1706236376027507107,0.13297767937183383,9.749707221984865,-1.0732803344726562,-0.030928920954465866,0.0015605371445417404,-0.04025868698954582
1706236376037070329,0.12015964835882188,9.74155902862549,-1.056852698326111,-0.02993990294635296,0.0011482061818242073,-0.03745724633336067
1706236376046762088,0.11543773859739305,9.764881134033203,-1.0619481801986697,-0.02965342253446579,8.625751797808334e-05,-0.03745925799012184
1706236376057703514,0.1137714833021164,9.763503074645998,-1.0624959468841553,-0.030752355232834816,-0.0010645652655512094,-0.03939717262983322
1706236376067259459,0.11647108197212219,9.7493371963501,-1.05735445022583,-0.03357687592506409,-0.0013964652316644788,-0.041856151074171066
1706236376077632922,0.12242829054594041,9.753031730651857,-1.0486911535263064,-0.03773023560643196,-0.0004473383305594325,-0.043619390577077866
1706236376087874125,0.11298295855522156,9.754724502563477,-1.0631972551345827,-0.042155854403972626,0.001310233143158257,-0.04393996670842171
1706236376096839959,0.11867870390415192,9.762462615966797,-1.0419771671295166,-0.04574289172887802,0.0030410774052143097,-0.04267995059490204
1706236376106791311,0.12334461510181427,9.757755279541016,-1.0408024787902832,-0.047865744680166245,0.004317105747759342,-0.04016413539648056
1706236376117979255,0.12928223609924316,9.749319076538086,-1.0374500751495361,-0.048354774713516235,0.005154260899871588,-0.03671129792928696
1706236376126789644,0.12244413048028947,9.750017166137695,-1.0501701831817627,-0.047274138778448105,0.0055431281216442585,-0.032585520297288895
1706236376137236551,0.1261540949344635,9.761147499084474,-1.0506321191787722,-0.044973380863666534,0.005318311043083668,-0.028407633304595947
1706236376146938625,0.1219870373606682,9.756423950195312,-1.0413014888763428,-0.0421496257185936,0.004556284751743078,-0.025146640837192535
1706236376157382959,0.11340511590242387,9.75743293762207,-1.0446392297744753,-0.03966902568936348,0.003732803976163268,-0.023461639881134033
1706236376167400125,0.11820797622203827,9.761141777038576,-1.033829927444458,-0.038325756788253784,0.0033536930568516254,-0.02319418080151081
1706236376177197903,0.11705012619495392,9.77291774749756,-1.0375446081161501,-0.03855977579951286,0.003719485132023692,-0.02353121154010296
1706236376187253070,0.10571502149105072,9.765506744384766,-1.0280951261520388,-0.0402592234313488,0.005033315625041723,-0.02351524867117405
1706236376197123848,0.11179929226636888,9.769519805908203,-1.0168782472610476,-0.04296429827809334,0.007348137442022562,-0.02240976318717003
1706236376207346848,0.1148078590631485,9.75434970855713,-1.0252442359924316,-0.04613538086414337,0.010284650139510632,-0.019802723079919815
1706236376217413977,0.10661695897579193,9.759741783142092,-1.023940443992615,-0.04916795343160629,0.012966623529791832,-0.015769442543387413
1706236376234605088,0.12175705283880235,9.76650619506836,-1.0253047943115234,-0.05148553475737572,0.014460978098213673,-0.01104380376636982
1706236376240832403,0.12727999687194824,9.75268077850342,-1.02801787853241,-0.05262817442417145,0.014405635185539722,-0.006745900958776474
1706236376247280811,0.1193591132760048,9.767821311950685,-1.014621138572693,-0.05221390724182129,0.013127841986715794,-0.0037742024287581444
1706236376257366144,0.12687043845653537,9.758769989013672,-1.0285038948059082,-0.05016837269067764,0.011306519620120525,-0.0023568307515233755
1706236376267398107,0.12173251807689667,9.759077072143555,-1.0201878547668457,-0.04698038473725319,0.009640201926231384,-0.0021264010574668646
1706236376276938477,0.11580487340688707,9.762420654296875,-1.0091661214828493,-0.04354527220129967,0.008554616943001747,-0.002474135486409068
1706236376287719329,0.1269380748271942,9.771541595458984,-1.0132495164871218,-0.040805619210004807,0.008172485046088696,-0.002662853803485632
1706236376301621403,0.1188352331519127,9.775276184082031,-1.0143678188323975,-0.03934256732463837,0.008615992031991482,-0.001999586122110486
1706236376307351236,0.12149978429079057,9.762744903564453,-1.0059103965759277,-0.03915025666356087,0.01006007008254528,-0.00024736166233196855
1706236376318150644,0.11297412961721422,9.769501686096193,-1.0081615447998047,-0.03987232595682144,0.012346978299319744,0.002330236369743943
1706236376327056792,0.12131308019161224,9.754975318908693,-1.0111315250396729,-0.04114843159914017,0.014777257107198238,0.005263908300548792
1706236376337034996,0.1125515326857567,9.761696815490724,-0.9993213415145874,-0.042688436806201935,0.016407756134867668,0.00806679017841816
1706236376347223699,0.11694185435771942,9.768469810485842,-1.0022172927856445,-0.044240374118089676,0.016600774601101875,0.010435271076858044
1706236376357659255,0.12370465695858002,9.756993293762209,-1.005063533782959,-0.04558119177818298,0.015441960655152798,0.012376704253256321
1706236376367845755,0.12670570611953735,9.772523880004883,-1.0070332288742068,-0.046408966183662415,0.013622877188026905,0.013968031853437424
1706236376377511533,0.12226077914237976,9.779620170593263,-1.0034900903701784,-0.04634127765893936,0.012056926265358925,0.015116794034838676
1706236376387398329,0.11672346293926239,9.772857666015625,-1.01725971698761,-0.04526268690824509,0.011662470176815987,0.015636272728443146
1706236376397230181,0.1277722418308258,9.770831108093263,-1.0084556341171267,-0.043577034026384354,0.012959470972418785,0.015351075679063797
1706236376407112255,0.13108603656291964,9.767449378967287,-1.0133725404739382,-0.04185459762811661,0.01559550128877163,0.014193071983754635
1706236376417640088,0.12761865556240085,9.763405799865724,-1.0184370279312136,-0.04031022638082504,0.01847807876765728,0.012328636832535267
1706236376426849977,0.13030114769935608,9.76844882965088,-1.0128337144851687,-0.03883238136768341,0.02042713575065136,0.010082756169140339
1706236376437080922,0.1745702028274536,9.77352046966553,-1.0087383985519411,-0.037121303379535675,0.02084200270473957,0.007836406119167805
1706236376446874218,1.636258275539149e-05,9.682404518127443,-1.3358807563781738,-0.03514166548848152,0.019571080803871155,0.004502748139202595
1706236376460546403,0.3883625864982605,10.145469665527344,-0.4630757868289948,-0.033319514244794846,0.01781538873910904,-0.0021177043672651052
1706236376471656922,-0.04563973471522332,9.369865417480469,-1.7508726119995117,-0.030840208753943443,0.01934739015996456,-0.010772572830319405
1706236376477072829,0.1689891964197159,10.049971580505373,-0.21099191904067993,-0.026668094098567963,0.025606028735637665,-0.01750686950981617
1706236376492170959,0.007771888282150031,9.370046615600586,-1.585820555686951,-0.02351517789065838,0.03116714581847191,-0.018723350018262863
1706236376497895218,-0.11325722187757493,10.524669647216797,-0.39919060468673706,-0.027409005910158157,0.031209386885166168,-0.010782964527606964
1706236376507138718,0.16251537203788757,9.219358444213867,-1.3135592937469482,-0.04361940920352936,0.03044007159769535,0.0075607383623719215
1706236376517938514,0.12475109845399858,9.912671089172365,-1.2595185041427615,-0.0709158405661583,0.034949593245983124,0.03049370087683201
1706236376527670496,0.163679301738739,9.772919654846193,-0.7525025606155396,-0.09845361113548279,0.04033994302153587,0.04427662119269371
1706236376537669514,0.2578295767307282,9.597548484802248,-1.0925333499908447,-0.11205791682004929,0.03876519203186035,0.039515137672424316
1706236376547476977,-0.12692752480506897,9.693731307983398,-1.1973408460617068,-0.1046333834528923,0.02757718414068222,0.021328993141651154
1706236376557566218,0.046348340809345245,9.692265510559084,-1.0364525318145752,-0.0827835351228714,0.006971673108637333,-0.001550183049403131
1706236376567615755,-0.039115697145462036,9.97217655181885,-0.7709945440292358,-0.06357940286397934,-0.018587499856948853,-0.024048637598752975
1706236376577849903,-0.11265072971582414,9.83775520324707,-1.118128776550293,-0.06221459433436394,-0.03725326433777809,-0.03826286271214485
1706236376587872533,0.24786260724067688,9.515478134155273,-1.220168113708496,-0.08243181556463242,-0.03758461773395538,-0.037512656301259995
1706236376597455477,0.2527675330638886,9.815725326538086,-0.7588552832603456,-0.11329641193151474,-0.021539827808737755,-0.026177633553743362
1706236376607107366,0.2706195414066315,9.823073387145998,-1.4107766151428223,-0.1330222487449646,-0.0023944189306348562,-0.014445343986153603
1706236376617119829,0.11331158131361009,9.627691268920898,-0.8009504675865174,-0.12359090894460678,0.01001411210745573,-0.009348930791020393
1706236376627354866,0.1383074373006821,10.026913642883303,-1.3975332975387575,-0.0849258154630661,0.014705540612339973,-0.014177986420691013
1706236376637183551,-0.029359208419919017,9.622379302978516,-0.72905832529068,-0.03466495871543884,0.015981359407305717,-0.028154153376817703
1706236376647252421,-0.022307833656668666,9.736974716186523,-1.2569103240966797,0.0031738656107336283,0.01821530982851982,-0.045212361961603165
1706236376657635773,0.2801061272621155,9.598254203796388,-1.2186118364334109,0.01200707908719778,0.019773071631789207,-0.058561474084854126
1706236376667633829,-0.018760452046990398,10.096786499023438,-0.9564642906188965,-0.007374628446996212,0.015926124528050423,-0.06780897080898285
1706236376677322477,0.1708163619041443,9.459051132202148,-0.9988846182823182,-0.040022220462560654,0.008111177943646908,-0.07520171254873276
1706236376687326218,0.1345352828502655,9.877706527709961,-1.119005084037781,-0.06960409134626389,0.0017392415320500731,-0.07782023400068283
1706236376697565403,0.21976597607135775,9.767520904541016,-1.1118762493133545,-0.08535879105329514,-0.001586004626005888,-0.07243780791759491
1706236376707107440,0.1473858654499054,9.800766944885256,-1.0833427906036377,-0.08257635682821274,-0.0019909508991986513,-0.062444619834423065
1706236376717053588,0.10675671696662903,9.976484298706055,-0.9872382283210756,-0.06351983547210693,0.0027903413865715265,-0.05389896780252457
1706236376727111421,0.13342151045799255,9.378567695617678,-1.161929249763489,-0.037157412618398666,0.0141057800501585,-0.04921094700694084
1706236376737226625,0.028637347742915157,10.237128257751467,-1.0627706050872803,-0.015053793787956238,0.027850087732076645,-0.047872088849544525
1706236376746892088,0.15037293732166293,9.483389854431154,-1.0433316230773926,-0.005900593474507332,0.03852776437997818,-0.049464501440525055
1706236376757342421,0.05810640379786492,10.026000022888185,-1.2784085273742676,-0.011937233619391918,0.04529659450054169,-0.053788989782333374
1706236376768805292,0.24134114384651184,9.52189826965332,-0.9641951918601991,-0.028315553441643715,0.048907406628131866,-0.061204563826322556
1706236376777283421,0.20143224298954013,9.764537811279297,-1.1177005767822266,-0.04512735828757286,0.047232236713171005,-0.07132750749588013
1706236376787876477,0.006669745314866305,9.66517734527588,-1.2938472032547,-0.052744679152965546,0.036491453647613525,-0.08157631009817123
1706236376797618162,0.19890363514423373,9.74440097808838,-0.9654606580734253,-0.048929598182439804,0.015835370868444443,-0.09077610075473785
1706236376807318014,0.18967574834823608,9.886599540710451,-1.000948786735535,-0.03878384456038475,-0.009109697304666042,-0.09852567315101624
1706236376817352699,0.10755502432584764,9.652191162109375,-1.016693115234375,-0.027415722608566284,-0.02827388048171997,-0.09990740567445755
1706236376827845495,0.06614644080400468,9.865780830383303,-1.2113978862762451,-0.01778659224510193,-0.03406120836734772,-0.08981448411941528
1706236376836868940,0.12603211402893066,9.77724838256836,-1.0772813558578493,-0.013428340665996075,-0.025831155478954315,-0.0718178004026413
1706236376847771940,0.1994837522506714,9.724049568176271,-1.1299816370010378,-0.01661250740289688,-0.00809570960700512,-0.05631159618496895
1706236376857108051,0.03290311247110367,9.60398578643799,-1.2405273914337158,-0.02506503276526928,0.011194061487913132,-0.05181138962507248
1706236376867061977,0.08734140545129777,9.906145095825195,-1.0175751447677615,-0.03480302169919014,0.022549079731106758,-0.060874324291944504
1706236376877241088,0.13699933886528015,9.75447177886963,-1.1819032430648806,-0.04431857913732529,0.022151529788970947,-0.07984105497598648
1706236376887111069,0.11660640686750413,9.774039268493654,-1.1589356660842898,-0.05307471752166748,0.015295403078198433,-0.10096495598554611
1706236376897158125,0.14912983775138855,9.69196891784668,-1.0686395168304443,-0.05904245376586914,0.00917386170476675,-0.11763987690210342
1706236376907572014,0.1289753764867783,9.807653427124023,-1.0342699289321902,-0.05997151508927345,0.006058389786630869,-0.1260986030101776
1706236376917528662,0.16474103927612305,9.682513236999513,-1.0718271732330322,-0.05524437129497528,0.0045839399099349976,-0.12353451550006866
1706236376927826051,0.1679719835519791,9.786503791809084,-1.085825324058533,-0.045895129442214966,0.003073975211009383,-0.10945794731378555
1706236376937905958,0.12268298119306566,9.821846008300781,-1.0380259752273562,-0.03389504924416542,0.0011606289772316813,-0.08786096423864365
1706236376947597699,0.19778543710708618,9.696757316589357,-1.1245503425598145,-0.021760256960988045,0.0003815778763964772,-0.06542956084012985
1706236376958009236,0.14973747730255127,9.703916549682617,-1.1820837259292605,-0.01165877003222704,0.0016935400199145079,-0.048902593553066254
1706236376970071181,0.1348218023777008,9.756067276000977,-1.0823116302490234,-0.0045823282562196255,0.0028225835412740707,-0.04378637298941612
1706236376977628551,0.10278838127851488,9.768696784973146,-1.130596399307251,-0.0012421378633007407,0.0010300381109118462,-0.051707908511161804
1706236376988336477,0.06510810554027557,9.718995094299318,-1.114250898361206,-0.003119012340903282,-0.0032521765679121017,-0.06858229637145996
1706236376996995718,0.09194014221429826,9.784081459045412,-1.070879101753235,-0.011769543401896954,-0.0075447093695402145,-0.08716215193271637
1706236377007321236,0.07998734712600708,9.828639030456545,-1.0696547031402588,-0.027047913521528244,-0.009381424635648727,-0.10058791190385818
1706236377017262532,-0.07469945400953294,9.738083839416506,-1.0527135133743288,-0.04692024365067482,-0.006572305224835873,-0.10427605360746384
1706236377027730773,0.057292979210615165,9.738549232482912,-1.0719983577728271,-0.0697840079665184,0.0011700427858158946,-0.09719659388065338
1706236377037839273,0.1703641414642334,9.76753044128418,-1.016848683357239,-0.09395445138216019,0.010584002360701561,-0.0819484144449234
1706236377047605069,0.19871483743190768,9.73390007019043,-1.0795923471450808,-0.1133192852139473,0.017159614711999893,-0.06303735822439194
1706236377056958718,0.19275133311748507,9.728506088256836,-1.0894355773925781,-0.11807217448949814,0.018332039937376976,-0.045306246727705
1706236377068658829,0.10061658918857574,9.773391723632812,-1.0850732326507568,-0.1026519387960434,0.014072535559535027,-0.03331080824136734
1706236377077260292,0.12654343247413635,9.75820064544678,-1.0842989683151247,-0.07174261659383774,0.006565290503203869,-0.029971137642860413
1706236377097071995,0.08099671453237535,9.730486869812013,-1.0735046863555908,-0.01152278296649456,-0.005848356988281012,-0.04541764408349991
1706236377107123810,0.11998212337493896,9.838412284851076,-1.02608060836792,0.00036196407745592296,-0.008336315862834454,-0.05659656226634979
1706236377119085366,0.1500516086816788,9.718021392822266,-1.0757596492767334,-0.002022665226832032,-0.007927751168608665,-0.06398812681436539
1706236377127410180,-0.0035638585686683655,9.70468044281006,-1.051969647407532,-0.01464189775288105,-0.00441938079893589,-0.06480972468852997
1706236377137900588,0.07984126359224321,9.830650329589844,-0.9990537762641908,-0.032711416482925415,0.00026090056053362787,-0.05922555923461914
1706236377147625421,0.12027614563703538,9.748927116394045,-1.000640869140625,-0.05294220894575119,0.003977550659328699,-0.04882137104868889
1706236377157505366,0.0696391984820366,9.75448226928711,-1.0923057794570925,-0.07179798185825348,0.006835521198809147,-0.035293396562337875
1706236377167819199,0.045736126601696014,9.701369285583498,-1.0135784149169922,-0.08540951460599899,0.0091378940269351,-0.02156960777938366
1706236377177848421,0.10578526556491852,9.802021026611328,-1.0250153541564941,-0.09243568032979965,0.009675036184489727,-0.01139252632856369
1706236377188696625,0.045622818171978,9.731115341186523,-1.0578844547271729,-0.09428847581148148,0.007713683880865574,-0.006593512836843729
1706236377197001995,0.09819731116294861,9.779109954833984,-1.039052963256836,-0.09311738610267639,0.00449457997456193,-0.0066301776096224785
1706236377207499625,0.09468808770179749,9.805646896362305,-1.0127744674682617,-0.09061521291732788,0.002228338737040758,-0.009962210431694984
1706236377217430254,0.11082570999860765,9.722950935363771,-1.0134385824203493,-0.08737301826477051,0.0027578785084187984,-0.014258748851716518
1706236377227599032,0.1233452931046486,9.79390621185303,-1.0405006408691406,-0.08290377259254456,0.006327860988676548,-0.016844961792230606
1706236377237666736,0.13682615756988525,9.727649688720703,-1.0013023614883425,-0.07643704861402512,0.0111742177978158,-0.01629258133471012
1706236377247337884,0.13578835129737854,9.785038948059084,-0.9990427494049072,-0.06759325414896011,0.014964334666728973,-0.012808356434106827
1706236377257895995,0.14390277862548828,9.701408386230469,-1.0374213457107546,-0.05676686391234398,0.016152994707226753,-0.0072854869067668915
1706236377268954366,0.1186683550477028,9.832963943481445,-0.9981802701950073,-0.045269906520843506,0.014387342147529125,-0.0010542728705331683
1706236377277587551,0.0882258266210556,9.716198921203615,-1.0200136899948122,-0.03531826287508011,0.010884665884077549,0.004275720100849867
1706236377287772273,0.09902437776327135,9.731752395629883,-1.0212364196777344,-0.0296946968883276,0.0075069814920425415,0.0076371002942323685
1706236377297589903,0.13095837831497192,9.772227287292482,-1.010451078414917,-0.03026732988655567,0.004774497356265783,0.008773909881711006
1706236377307386643,0.07991640269756317,9.75632095336914,-0.9939647912979126,-0.036322321742773056,0.002288402523845434,0.008163413032889366
1706236377317338421,0.07745309174060822,9.767837524414062,-1.0062015056610107,-0.04528937116265297,0.0004715333634521812,0.007075041998177767
1706236377327356551,0.11739155650138855,9.7796630859375,-1.0133452415466309,-0.054847393184900284,0.00034524340298958123,0.006886759307235479
1706236377338184069,0.12180588394403459,9.81306266784668,-1.0038859844207764,-0.06313449889421463,0.0027512323576956987,0.008025960996747017
1706236377347077365,0.15705716609954834,9.773553848266602,-1.0095956325531006,-0.06785888969898224,0.008235868066549301,0.009919137693941593
1706236377357978625,0.13217465579509738,9.742823600769045,-1.0177410840988161,-0.0668305829167366,0.016211481764912605,0.011701746843755245
1706236377367303403,0.16139464080333712,9.753931045532227,-1.000122308731079,-0.05945189297199249,0.023998118937015533,0.012692248448729515
1706236377380057717,0.18422982096672058,9.747247695922852,-1.0220171213150027,-0.04712199047207832,0.028018098324537277,0.01263156533241272
1706236377387241977,0.17782390117645264,9.751273155212404,-1.015744686126709,-0.032065074890851974,0.026337550953030586,0.011654090136289597
1706236377397710291,0.19219505786895752,9.768460273742678,-0.9852741956710815,-0.016278892755508423,0.019804343581199646,0.010123968124389648
1706236377410640902,0.1780487298965454,9.76512336730957,-0.9968516230583192,-0.0014882590621709824,0.011349976994097233,0.008886784315109253
1706236377418320273,0.1654488444328308,9.76644039154053,-0.9911835193634033,0.010667690075933933,0.004394229035824537,0.009177753701806068
1706236377428646606,0.18106760084629062,9.759371757507326,-0.9932206869125366,0.018742946907877922,0.00114616344217211,0.011682121083140373
1706236377437271069,0.1543298065662384,9.784998893737795,-1.0005998611450195,0.021993843838572502,0.0018968848744407296,0.015937594696879387
1706236377447152717,0.1634632647037506,9.776555061340334,-0.9929004907608032,0.020728642120957375,0.005698410794138908,0.020653920248150826
1706236377457859365,0.21528787910938266,9.77700424194336,-1.0484673976898193,0.016340035945177078,0.011297733522951603,0.02422388456761837
1706236377467727051,0.034845989197492606,9.820372581481935,-0.9993966817855835,0.010737640783190727,0.017603006213903427,0.02502335049211979
1706236377477435884,0.1274802535772324,9.704313278198242,-0.9954517483711244,0.004186578094959259,0.02370600961148739,0.022304100915789604
1706236377490765365,0.14855614304542542,9.768567085266115,-1.1111687421798708,-0.005053471773862839,0.02806352823972702,0.016795340925455093
1706236377501235736,0.1816166341304779,9.837137222290039,-0.8892072439193726,-0.01685956120491028,0.02891753986477852,0.009839647449553013
1706236377508043514,0.2150617986917496,9.724908828735352,-0.9908595085144043,-0.02698579616844654,0.026724305003881454,0.003843720071017742
1706236377517396125,0.1040629893541336,9.809335708618164,-1.0414705276489258,-0.03025803342461586,0.023909825831651688,0.002436443930491805
1706236377527280884,0.21629519760608676,9.721116065979006,-0.928782880306244,-0.025192497298121452,0.021988440304994583,0.007022256497293711
1706236377537640014,0.20115527510643005,9.777273178100586,-1.047295331954956,-0.014400632120668888,0.020652640610933304,0.015371514484286308
1706236377547669680,0.14540672302246094,9.75959587097168,-0.9823905229568481,-0.001397490850649774,0.018908727914094925,0.024003924801945686
1706236377559318384,0.20301710069179538,9.715103149414062,-0.9933449029922485,0.010791148990392685,0.016143133863806725,0.0299382247030735
1706236377567958051,0.11132179945707323,9.85690212249756,-1.0523198843002322,0.019320743158459663,0.012548510916531086,0.031610213220119476
1706236377578883884,0.232220858335495,9.673540115356445,-1.0140385627746582,0.02235168032348156,0.009335271082818508,0.028790215030312538
1706236377588226680,0.1006569489836693,9.800819396972656,-1.0357067584991455,0.02010144107043743,0.007685648277401924,0.021909229457378387
1706236377597956513,0.14052385091781616,9.797056198120117,-0.989391565322876,0.014129385352134705,0.0075914314948022366,0.012503993697464466
1706236377607818865,0.17092365026474,9.726891517639162,-1.0235842466354372,0.005782293155789375,0.008888854645192623,0.00340904388576746
1706236377619253569,0.1412972062826157,9.816737174987795,-1.0435059070587158,-0.003476047422736883,0.011585501953959465,-0.002755430294200778
1706236377627790588,0.13981084525585177,9.751058578491211,-0.9268655180931092,-0.011539915576577187,0.015110119245946407,-0.004968884866684675
1706236377637763050,0.15974211692810059,9.796821594238281,-1.0470693111419678,-0.01691913977265358,0.018789615482091904,-0.003121046582236886
1706236377647680532,0.13332921266555786,9.713769912719727,-1.0611450672149658,-0.019416842609643936,0.021929843351244926,0.002021451946347952
1706236377657599865,0.16241066157817843,9.781826972961428,-0.9368141293525697,-0.01962166093289852,0.0232846699655056,0.007754941936582327
1706236377668004328,0.15089331567287448,9.78133773803711,-1.071260690689087,-0.018371067941188812,0.02192188985645771,0.01139074843376875
1706236377677292736,0.17738386988639832,9.714027404785156,-1.0036147832870486,-0.01622631773352623,0.01843404583632946,0.012295221909880638
1706236377688021310,0.1609557569026947,9.814760208129883,-1.0531175136566162,-0.013253824785351753,0.014249040745198727,0.010614708997309208
1706236377697141902,0.1841157823801041,9.729618072509766,-1.0327187776565554,-0.009336499497294426,0.010615942999720573,0.006406562868505716
1706236377707071643,0.1579696536064148,9.770819664001467,-1.0390201807022097,-0.00460411049425602,0.008438470773398876,0.00018373833154328167
1706236377717588773,0.16111677885055542,9.763383865356445,-1.0449417829513552,0.00026960973627865314,0.00783946830779314,-0.006954212673008442
1706236377728383902,0.16504931449890137,9.779850006103516,-1.0009279251098633,0.004132291302084923,0.008382773026823997,-0.013520939275622368
1706236377737075810,0.15014854073524475,9.736717224121094,-1.053089737892151,0.0059665716253221035,0.009719243273139,-0.017935117706656456
1706236377747408902,0.13912880420684814,9.758947372436523,-1.0021778345108034,0.005335831083357334,0.011211900971829891,-0.019192975014448166
1706236377757543439,0.13224394619464877,9.78666877746582,-1.015679121017456,0.0021712640300393105,0.011937515810132027,-0.017319081351161003
1706236377767977643,0.13140884041786194,9.753226280212404,-1.032377004623413,-0.003381366143003106,0.011774780228734016,-0.013054859824478626
1706236377777032384,0.13512934744358066,9.74989128112793,-1.0309671163558962,-0.01070654671639204,0.01139581948518753,-0.007761799264699221
1706236377787221958,0.13790804147720337,9.77354145050049,-1.0373009443283083,-0.018559299409389496,0.011083927936851978,-0.0033767700660973787
1706236377797304717,0.14145320653915405,9.766416549682617,-1.0319043397903445,-0.02535022236406803,0.010728076100349426,-0.0015310067683458328
1706236377807131606,0.13538326323032382,9.766464233398438,-1.050114631652832,-0.02976805903017521,0.010559032671153545,-0.0027413759380578995
1706236377817699828,0.14562274515628817,9.76202392578125,-1.0275331735610964,-0.031325045973062515,0.010937544517219067,-0.006449192296713591
1706236377827011643,0.14297428727149963,9.775231361389162,-1.0434454679489138,-0.030391301959753036,0.011864750646054745,-0.01140366867184639
1706236377837164347,0.16172446310520175,9.753931999206545,-1.0282748937606814,-0.027727076783776283,0.013064433820545673,-0.016091523692011833
1706236377847931643,0.14816035330295566,9.76607418060303,-1.0278542041778564,-0.02400108240544796,0.014136835001409054,-0.01923646777868271
1706236377867073069,0.14610561728477478,9.745497703552248,-1.0291124582290652,-0.015901194885373116,0.013907155022025108,-0.01894041895866394
1706236377877299013,0.15309977531433105,9.74653434753418,-1.0392272472381592,-0.013185027055442333,0.011772017925977707,-0.016435105353593826
1706236377887809217,0.13371166586875916,9.763700485229492,-1.0199627876281738,-0.012075982056558132,0.008262554183602333,-0.013758616521954536
1706236377897801532,0.1407792568206787,9.761049270629883,-1.041757345199585,-0.012557054869830608,0.00428485544398427,-0.011716733686625957
1706236377908652569,0.1361755877733231,9.761747360229492,-1.0408726930618288,-0.014437778852880001,0.0013043101644143462,-0.010685047134757042
1706236377918919347,0.12054654210805894,9.774190902709961,-1.0260609388351443,-0.017420323565602303,0.00047801356413401663,-0.010831372812390327
1706236377927570217,0.11362183094024658,9.774894714355469,-1.0349825620651247,-0.021276123821735382,0.002174884080886841,-0.011972663924098015
1706236377937636643,0.12089406698942186,9.769491195678711,-1.0337176322937012,-0.026009995490312576,0.006057928781956434,-0.013458287343382835
1706236377948150495,0.12059484422206879,9.776241302490234,-1.0391584634780886,-0.031483232975006104,0.011211500503122807,-0.014655188657343388
1706236377967919106,0.13418094813823703,9.765793800354006,-1.042901396751404,-0.04128454625606537,0.020451080054044724,-0.015723949298262596
1706236377978030217,0.1440933644771576,9.754313468933107,-1.0382841825485232,-0.04328090697526932,0.022561131045222282,-0.015996508300304413
1706236377987743902,0.14409121870994568,9.753985404968263,-1.0368504524230957,-0.04228392243385315,0.02224850095808506,-0.016442688181996346
1706236377997690050,0.1511175483465195,9.755650520324709,-1.0360937118530273,-0.038366515189409256,0.019515573978424072,-0.017122941091656685
1706236378007737680,0.1401416212320328,9.753641128540039,-1.031724214553833,-0.032389819622039795,0.015006612986326218,-0.01780807040631771
1706236378020473365,0.14347447454929355,9.764777183532717,-1.0249236822128298,-0.025811798870563507,0.009922865778207779,-0.01808791607618332
1706236378027612902,0.14929924905300143,9.756338119506836,-1.0225651264190674,-0.02020006813108921,0.005633368622511625,-0.017508860677480698
1706236378037872587,0.12355976551771165,9.777274131774904,-1.0307738780975342,-0.016648299992084503,0.003219484118744731,-0.015793604776263237
1706236378050986143,0.12872551381587985,9.776590347290039,-1.039811134338379,-0.015691937878727913,0.0032704712357372046,-0.013217398896813393
1706236378057223513,0.13069164752960205,9.77322292327881,-1.0356465578079226,-0.017466064542531967,0.005873037967830896,-0.01073257252573967
1706236378067260310,0.12112266570329668,9.763450622558594,-1.0470244884490967,-0.02151578664779663,0.010411171242594719,-0.009488686919212341
1706236378077231032,0.11266056448221208,9.762078285217287,-1.0348742008209229,-0.02685629390180111,0.015443247742950916,-0.01014990545809269
1706236378087937828,0.13089358806610107,9.765814781188967,-1.041657090187073,-0.03247945383191109,0.01924130506813526,-0.012547911144793034
1706236378097573087,0.12083448469638824,9.758028984069826,-1.0332636833190918,-0.03750119358301163,0.02068522572517395,-0.01579185575246811
1706236378107746272,0.12798666954040527,9.767174720764162,-1.0309728384017947,-0.04110325127840042,0.01970316283404827,-0.018703648820519447
1706236378124308291,0.13038980960845947,9.763103485107422,-1.0181448459625244,-0.042778514325618744,0.017094669863581657,-0.020225148648023605
1706236378127791365,0.13873234391212463,9.754664421081545,-1.023377060890198,-0.04246804490685463,0.014010707847774029,-0.01964658498764038
1706236378137857050,0.1421364396810532,9.764449119567873,-1.0248612165451052,-0.04037737473845482,0.011338367126882076,-0.01687016151845455
1706236378147982013,0.15238951146602633,9.759755134582521,-1.034895896911621,-0.03679629787802696,0.00946285855025053,-0.012659150175750256
1706236378157467865,0.1392916738986969,9.765148162841797,-1.0293622016906738,-0.03210154548287392,0.008474982343614101,-0.008459413424134254
1706236378168115439,0.13946260511875155,9.75904941558838,-1.0340194702148438,-0.026966258883476257,0.008320433087646961,-0.00569255743175745
1706236378177438069,-0.04477669671177865,9.76705551147461,-1.0163030624389648,-0.023327026516199112,0.008796529844403267,-0.004978662356734276
1706236378188189346,-0.20915088057518005,9.875946044921875,-1.359800696372986,-0.02685311995446682,0.010176542215049267,-0.007440995890647173
1706236378197773254,0.03126027435064316,9.801332473754883,-1.145704984664917,-0.0464981272816658,0.014248336665332317,-0.01794239692389965
1706236378208083772,0.1118031218647957,9.535377502441406,-0.8981205224990845,-0.08529659360647202,0.021788379177451134,-0.04119089990854263
1706236378218425346,0.2281090468168259,9.870340347290039,-1.1509721279144287,-0.1311590075492859,0.028062663972377777,-0.0714971274137497
1706236378227389624,0.19338458776474,9.599486351013185,-1.102534532546997,-0.16185501217842102,0.02606222778558731,-0.09513021260499954
1706236378237546235,0.19974811375141147,9.80888557434082,-0.9386460185050965,-0.16026151180267334,0.013979900628328323,-0.10333556681871414
1706236378248127550,0.14757572114467624,9.847582817077638,-1.1146771907806396,-0.12505605816841125,-0.0032476892229169607,-0.09566769748926163
1706236378257195921,0.05072009563446045,9.714148521423342,-0.830830454826355,-0.07050277292728424,-0.016842277720570564,-0.07532649487257004
1706236378267500328,0.16246318817138672,9.769122123718263,-1.168330192565918,-0.018155550584197044,-0.020013781264424324,-0.04694646596908569
1706236378277466661,0.2403566837310791,9.776453018188477,-0.9541187286376953,0.015230042859911919,-0.012985562905669212,-0.01701386086642742
1706236378287379365,0.12174443900585175,9.810552597045898,-0.9319005608558656,0.02619014121592045,-0.0005939251277595758,0.007357030641287565
1706236378297776976,0.07131335884332658,9.732832908630373,-1.1200950145721436,0.02130458503961563,0.012619875371456146,0.022538309916853905
1706236378308477809,0.12852983176708224,9.72901248931885,-1.0205254554748535,0.007680207956582308,0.023138245567679405,0.028364967554807663
1706236378317174198,0.15677960216999057,9.751410484313967,-1.0997204780578613,-0.010126837529242039,0.02771521918475628,0.024690447375178337
1706236378327651513,0.1032719612121582,9.793128013610842,-1.0299445390701296,-0.027602752670645714,0.025022847577929497,0.012111412361264229
1706236378338669328,0.1357793062925339,9.76112461090088,-1.020256519317627,-0.04045775160193443,0.01751984842121601,-0.005777100566774607
1706236378343085254,0.16505631804466248,9.78818130493164,-1.087931036949158,-0.04666542261838913,0.009962055832147598,-0.0231913011521101
1706236378358079495,0.15172271430492404,9.759690284729006,-1.0262519121170046,-0.04617750272154808,0.0060898372903466225,-0.0354023277759552
1706236378362469791,0.20859473943710327,9.760028839111328,-0.9974442720413208,-0.03970629349350929,0.006813241634517908,-0.0406557060778141
1706236378376972180,0.19552049040794373,9.777917861938477,-0.9894429445266724,-0.028269730508327484,0.010558456182479858,-0.03874102607369423
1706236378386322291,0.1638455241918564,9.737770080566406,-1.021078109741211,-0.013342110440135002,0.014833172783255577,-0.029963966459035873
1706236378396877457,-0.07464136928319932,9.692728042602539,-0.9770129919052124,0.0011914552887901664,0.01717916689813137,-0.016162438318133354
1706236378410676383,-0.5059168934822084,9.871221542358398,-1.100494980812073,0.004358180332928896,0.015837425366044044,-0.0011335363378748298
1706236378425983235,0.24503818154335022,9.502634048461914,-0.7456813454627992,-0.02044525370001793,0.010710199363529682,0.011471659876406193
1706236378429098994,0.21599331498146057,10.119145393371584,-1.255185604095459,-0.07690153270959854,0.0033044854644685984,0.020986834540963173
1706236378436196328,0.009513051249086859,9.495306015014648,-1.0390094518661501,-0.14195646345615387,-0.002788353944197297,0.026940204203128815
1706236378446506013,-0.029808305203914642,9.955435752868654,-0.9159557819366455,-0.18482263386249542,-0.003469491144642234,0.02577534317970276
1706236378458227587,0.19955036044120789,9.35214614868164,-0.9066234230995179,-0.19331976771354675,0.0001954757171915844,0.01746925711631775
1706236378468746050,-0.157589852809906,10.245144844055178,-1.3269236087799072,-0.17485421895980835,0.0023385491222143173,0.00840716902166605
1706236378476730513,0.18216930329799655,9.540642738342287,-0.7258824110031128,-0.1448257714509964,0.001599792274646461,0.0022871335968375206
1706236378486555087,0.0978478193283081,9.855961799621584,-1.1161530017852783,-0.11728326231241226,0.0032360763289034367,-0.0014632469974458218
1706236378503792957,-0.021445252001285553,9.512683868408203,-1.108490586280823,-0.09859258681535721,0.00875446479767561,-0.002351335482671857
1706236378506611624,0.05390409380197525,9.899048805236818,-0.9434655308723451,-0.08937375992536545,0.011943238787353039,-0.0013158258516341448
1706236378516379531,0.08835998922586442,9.848409652709961,-0.9542394280433656,-0.08917909115552902,0.00855480507016182,-0.0008929716423153877
1706236378527470550,0.08977839350700378,9.629398345947266,-1.0192697048187256,-0.0953545793890953,0.0027073300443589687,-8.080926932052535e-07
1706236378537938439,0.038879837840795524,9.806926727294922,-0.9592788219451904,-0.10255970805883408,-1.4437371646636166e-05,0.004337388556450605
1706236378547762735,0.04943407326936722,9.752979278564453,-1.0200425386428835,-0.1067262515425682,0.00060892483452335,0.012374662794172764
1706236378559703883,0.07377824932336809,9.830253601074219,-0.9961520433425903,-0.10743451863527298,0.0028517788741737604,0.02161453664302826
1706236378567118698,0.05510931834578515,9.696464538574219,-0.9597350955009462,-0.10620341449975967,0.006602367386221886,0.02904033102095127
1706236378579792643,0.037200111895799644,9.840995788574219,-0.966298282146454,-0.10447545349597931,0.01163463108241558,0.0333980917930603
1706236378587760180,0.037419300526380546,9.741522789001467,-1.070692777633667,-0.10356031358242035,0.0167959276586771,0.035371337085962296
1706236378597024624,0.04067580029368401,9.778215408325195,-0.992004692554474,-0.1047004982829094,0.021148519590497017,0.03505663201212883
1706236378609602087,0.07267230749130249,9.765443801879883,-1.0041054487228396,-0.10814019292593002,0.02403416857123375,0.031436722725629807
1706236378616573661,0.04403029009699822,9.750823974609375,-0.9843491911888124,-0.11251947283744812,0.02482321858406067,0.024945393204689026
1706236378628318754,0.04427700862288476,9.69961929321289,-1.0186156034469607,-0.11587227135896683,0.022968269884586334,0.01811937615275383
1706236378637102624,0.09374439716339111,9.81033229827881,-1.0059890747070312,-0.11704973876476288,0.018028274178504944,0.01332471240311861
1706236378647152828,0.07677467912435533,9.829440116882326,-0.9401583075523378,-0.11557408422231674,0.011309434659779072,0.011483370326459408
1706236378656351883,0.048102498054504395,9.757987022399904,-0.999026119709015,-0.11123565584421158,0.006886020768433809,0.013018171302974224
1706236378666398976,0.05547982454299927,9.755565643310547,-0.974740743637085,-0.10503707081079483,0.008141536265611649,0.018103091046214104
1706236378676606846,0.06515708565711975,9.80185317993164,-1.001706600189209,-0.09934128820896149,0.014202895574271679,0.025522619485855103
1706236378686563457,0.06393856555223466,9.791393280029297,-1.009207367897034,-0.09613016247749329,0.021739870309829712,0.03262857720255852
1706236378698960142,0.03326013311743737,9.75558090209961,-0.9873208403587342,-0.09586421400308609,0.02829970046877861,0.036737773567438126
1706236378707691754,0.05949778109788895,9.77315902709961,-1.0010002851486208,-0.09809725731611252,0.032532770186662674,0.03663979843258858
1706236378717093587,0.042576845735311515,9.772473335266115,-1.003998398780823,-0.1021246463060379,0.03351766616106033,0.03308340162038803
1706236378726767513,0.0518389753997326,9.781941413879396,-1.0063441991806032,-0.10694184899330139,0.03136197477579117,0.027806537225842476
1706236378736933402,0.05395988747477532,9.777149200439453,-0.9667056798934937,-0.11138439178466797,0.027516476809978485,0.022559871897101402
1706236378752070420,0.029261793941259384,9.771759033203125,-0.9546475410461426,-0.11460330337285995,0.023865466937422752,0.019237326458096504
1706236378759945698,0.03660702705383301,9.75453853607178,-0.9828826189041138,-0.11655912548303604,0.021508295089006424,0.019790425896644592
1706236378766387068,0.02640263177454472,9.80348873138428,-0.9795892238616943,-0.11806448549032211,0.020420575514435768,0.0248182974755764
1706236378777926902,0.050005391240119934,9.813621520996094,-0.9783781170845033,-0.12000495195388794,0.020535551011562347,0.032607004046440125
1706236378787253087,0.044262148439884186,9.779884338378906,-0.9928886890411377,-0.12242411822080612,0.02261442504823208,0.040195927023887634
1706236378796246272,0.04830855876207352,9.739737510681154,-1.01530659198761,-0.12445691972970963,0.02687891758978367,0.04492831602692604
1706236378806436031,0.07502494752407074,9.78464126586914,-1.016143560409546,-0.1249932274222374,0.03139530494809151,0.04503604397177696
1706236378816799420,0.06448395550251007,9.777527809143068,-1.0042992830276491,-0.12316308170557022,0.03346789628267288,0.04000284522771835
1706236378826470698,0.05965929478406906,9.768424034118654,-1.011012077331543,-0.11867912113666534,0.03221723064780235,0.03106575831770897
1706236378836860976,0.052850499749183655,9.769039154052734,-0.9868873357772827,-0.11236996203660965,0.02871624194085598,0.020968230441212654
1706236378846963642,0.07133437693119049,9.799097061157227,-0.9869491457939149,-0.10602188110351562,0.0246269628405571,0.012889258563518524
1706236378856701235,0.057239219546318054,9.794695854187013,-0.9882567524909974,-0.10124553740024567,0.02169782482087612,0.009247489273548126
1706236378866836883,0.05223068967461587,9.789958953857422,-0.9733120799064637,-0.0987192764878273,0.021491946652531624,0.010816267691552639
1706236378876937124,0.05802250280976296,9.776786804199219,-0.9789740443229676,-0.09842563420534134,0.024425944313406944,0.01667039655148983
1706236378887217476,0.04809165373444558,9.760228157043459,-0.9923537969589233,-0.09999158978462219,0.029120372608304024,0.024817930534482002
1706236378898023235,0.06822244077920915,9.78696060180664,-1.015430212020874,-0.1027037724852562,0.033101871609687805,0.032662831246852875
1706236378907105920,0.0522235818207264,9.784581184387209,-1.0082838535308838,-0.10555897653102875,0.034554243087768555,0.03744302690029144
1706236378917306179,0.03674091398715973,9.764686584472656,-1.0076259374618532,-0.10771945118904114,0.033432599157094955,0.03730032965540886
1706236378926917272,0.04173743724822998,9.764345169067383,-1.0107600688934326,-0.10919604450464249,0.03071514703333378,0.03234252333641052
1706236378937239679,0.049195263534784324,9.780492782592773,-0.983649492263794,-0.1107260063290596,0.02723577991127968,0.024612609297037125
1706236378946219865,0.06407976150512695,9.785913467407227,-0.9972505569458008,-0.11269362270832062,0.023756908252835274,0.01713656447827816
1706236378956593957,0.053956039249897,9.775118827819826,-0.996833324432373,-0.11449208855628967,0.02132643386721611,0.012573814950883389
1706236378966665531,0.08709213137626648,9.764986038208008,-0.9886458516120912,-0.11497408151626587,0.020666761323809624,0.01200021430850029
1706236378976467716,0.08746053278446198,9.774446487426758,-1.0100804567337038,-0.11307165771722794,0.021430812776088715,0.014697901904582977
1706236378986929513,0.10870409756898881,9.772106170654297,-1.0281809568405154,-0.10803139209747314,0.022552063688635826,0.018684573471546173
1706236378996885124,0.09440094232559204,9.75051784515381,-1.0177321434020996,-0.09971974790096283,0.023077474907040596,0.021379314363002777
1706236379007160087,0.1036311760544777,9.758607864379883,-1.0069683790206911,-0.08904118090867996,0.022345682606101036,0.02084755338728428
1706236379017253920,0.1264607310295105,9.743175506591797,-1.0442320108413699,-0.07772593200206757,0.019892511889338493,0.016928749158978462
1706236379026422327,0.09788289666175842,9.777530670166016,-1.014267921447754,-0.06740651279687881,0.015791313722729683,0.010819954797625542
1706236379036454068,0.13641348481178284,9.787676811218263,-1.0218986272811892,-0.059028614312410355,0.011197002604603767,0.004068285692483187
1706236379046894402,0.14278011023998263,9.72286128997803,-1.019364595413208,-0.052691131830215454,0.00796947069466114,-0.0017624348402023315
1706236379056475198,0.04927089810371399,9.750152587890625,-1.0202435255050661,-0.04795173555612564,0.00685035390779376,-0.005441313609480858
1706236379067035198,-0.6066442728042603,9.734373092651367,-0.9803379178047181,-0.048663198947906494,0.006525988690555096,-0.006396121345460415
1706236379076423883,0.636583983898163,9.91927719116211,-1.0330414772033691,-0.06525950133800507,0.005979630630463362,-0.0045275441370904446
1706236379086650735,-0.12938731908798218,9.759226799011232,-1.0265403985977175,-0.09959157556295395,0.007413314189761877,-0.0005132441292516887
1706236379097031753,0.045206900686025626,9.724711418151857,-1.0681453943252566,-0.13523757457733154,0.01386665366590023,0.0035221802536398172
1706236379107103513,0.14556622505187988,9.506811141967773,-1.0111231803894043,-0.15511922538280487,0.022466879338026047,0.004780648276209831
1706236379116379327,0.041943993419408805,9.997434616088867,-1.1761796474456787,-0.1551365852355957,0.024493146687746048,0.0012792721390724182
1706236379127299994,0.11316032707691193,9.617762565612795,-0.8668183088302612,-0.13941043615341187,0.015821583569049835,-0.007239165250211954
1706236379136261142,0.18603649735450745,9.801955223083498,-1.0984648466110232,-0.11489072442054749,0.0018387212185189128,-0.017776217311620712
1706236379146818050,0.11808971315622331,9.656200408935547,-1.189672350883484,-0.08784948289394379,-0.010424661450088024,-0.025826377794146538
1706236379157002568,-0.03433498740196228,9.947405815124513,-0.8039092421531678,-0.06298685073852539,-0.017687896266579628,-0.03027743473649025
1706236379167081438,0.26048189401626587,9.706627845764162,-1.2057846784591677,-0.045470308512449265,-0.017681628465652466,-0.03182554990053177
1706236379177148438,0.04690248146653176,9.714100837707521,-1.0732567310333252,-0.03828439861536026,-0.009278552606701851,-0.030536992475390434
1706236379186920420,0.013273560442030432,9.765619277954102,-0.9853191375732422,-0.03965475410223007,0.003595267189666629,-0.028734197840094566
1706236379196386716,0.18720006942749023,9.738569259643555,-1.1213170289993288,-0.04675290361046791,0.013861402869224548,-0.029259920120239258
1706236379206478698,-0.04128080233931542,9.848398208618164,-1.0510734319686892,-0.057523179799318314,0.017740260809659958,-0.03214961290359497
1706236379216608605,0.1403128951787949,9.651546478271484,-0.9764052033424379,-0.0695880651473999,0.016595516353845596,-0.03600490093231201
1706236379227290068,0.11290386319160461,9.795289993286133,-1.0711965560913086,-0.0805305615067482,0.013122854754328728,-0.03852890059351921
1706236379236262420,0.08683541417121887,9.700698852539062,-1.1130759716033936,-0.08753817528486252,0.008318860083818436,-0.0377081036567688
1706236379246314994,0.1277109980583191,9.753900527954102,-0.9964554309844971,-0.08822554349899292,0.0023605325259268284,-0.03465688228607178
1706236379257257161,0.13701705634593966,9.801009178161623,-1.086982011795044,-0.0824924036860466,-0.003749337512999773,-0.03213336318731308
1706236379266473475,0.16427427530288696,9.720500946044922,-1.0445778369903564,-0.0717984288930893,-0.007926393300294876,-0.031307850033044815
1706236379276567012,0.105375736951828,9.739215850830078,-1.1145364046096804,-0.05796292424201965,-0.008599073626101017,-0.03221813216805458
1706236379289711272,0.15767881274223328,9.783681869506836,-1.0540713071823122,-0.0434684120118618,-0.0064437310211360455,-0.0352107435464859
1706236379296428716,0.14191968739032748,9.763041496276857,-1.0390061140060427,-0.0311350766569376,-0.003066681558266282,-0.0402015782892704
1706236379306453975,0.09487568587064744,9.695653915405273,-1.1191003322601318,-0.022885411977767944,0.0005575442337431014,-0.04570818319916725
1706236379316925512,0.14509746432304382,9.71581554412842,-1.0347310304641726,-0.01957908272743225,0.0028777236584573984,-0.05006624758243561
1706236379326392346,0.11664815247058868,9.816085815429688,-1.0446786880493164,-0.021124372258782387,0.001885206438601017,-0.05250930041074753
1706236379336987383,0.14331769943237305,9.753970146179201,-1.0577625036239626,-0.02599761076271534,-0.0018269828287884593,-0.05237193778157234
1706236379347068698,0.10866839438676835,9.73609733581543,-1.0398250818252566,-0.03176158666610718,-0.0048769814893603325,-0.04916991665959358
1706236379356694883,0.10494238138198853,9.762152671813967,-1.0682189464569092,-0.036613430827856064,-0.004980540834367275,-0.043615031987428665
1706236379367072883,0.14826855063438416,9.758365631103516,-1.0488888025283816,-0.040110692381858826,-0.00264515308663249,-0.037495385855436325
1706236379376350068,0.1116551235318184,9.740864753723146,-1.0773959159851074,-0.04232469201087952,0.0005591964581981301,-0.032800789922475815
1706236379386586161,0.13640184700489047,9.776614189147951,-1.053333044052124,-0.04308728501200676,0.0033518734853714705,-0.030915003269910812
1706236379396798586,0.14456976950168612,9.758039474487305,-1.0363960266113281,-0.04227515310049057,0.0051830848678946495,-0.03193961828947067
1706236379407069883,0.14288625121116638,9.728065490722656,-1.0901296138763428,-0.03989758715033531,0.006177621893584728,-0.034619323909282684
1706236379417246994,0.24212202429771423,9.76182746887207,-1.0505971908569336,-0.035548992455005646,0.006293933372944593,-0.03751789778470993
1706236379426606549,0.1799010932445526,9.832705497741701,-1.0704594850540163,-0.027904098853468895,0.005616066511720419,-0.040064677596092224
1706236379436876753,0.20502856373786926,9.65740489959717,-1.0201454162597656,-0.015696726739406586,0.005277776159346104,-0.041977692395448685
1706236379446931568,0.2269682437181473,9.765862464904787,-1.0383105278015137,0.0003759586834348738,0.005680031143128872,-0.04236029461026192
1706236379456336827,0.21645885705947876,9.817869186401367,-1.067319393157959,0.01783871464431286,0.005479483865201473,-0.04020971432328224
1706236379466553772,0.18332436680793762,9.775249481201172,-1.02037250995636,0.03392425924539566,0.004740205593407154,-0.035752929747104645
1706236379477098179,0.21442538499832153,9.663483619689943,-1.0103429555892947,0.04604547843337059,0.005331153981387615,-0.030207160860300064
1706236379487231957,0.1619759202003479,9.786870002746584,-1.0896131992340088,0.05224183201789856,0.006886837538331747,-0.024516886100172997
1706236379508031735,0.12967510521411899,9.747507095336914,-0.9698820114135742,0.05161069333553314,0.006847891490906477,-0.019464876502752304
1706236379508112994,0.17109373211860657,9.797122001647951,-1.1530147790908816,0.04404525086283684,0.004606462083756924,-0.016095004975795746
1706236379516867753,0.13498350977897644,9.77422618865967,-1.0422632694244385,0.030671080574393272,0.0024648949038237333,-0.015853429213166237
1706236379526886994,0.20166146755218506,9.770467758178711,-0.9804664850234985,0.014607839286327362,0.0030563403852283955,-0.019754473119974136
1706236379537217012,0.1586108058691025,9.76872444152832,-1.141448736190796,0.00030992276151664555,0.007080534938722849,-0.026284262537956238
1706236379546710401,0.16206303238868713,9.775548934936523,-1.001042366027832,-0.008467752486467361,0.013096699491143227,-0.03249305114150047
1706236379556479272,0.2546272277832031,9.785393714904787,-1.0253190994262695,-0.010237118229269981,0.01901094615459442,-0.036595188081264496
1706236379569107957,0.20166106522083285,9.727356910705568,-1.0445728302001953,-0.005066251382231712,0.023292604833841324,-0.037409521639347076
1706236379583916790,0.22509291768074036,9.765509605407717,-1.0240671634674072,0.006331335287541151,0.02481590211391449,-0.03421393409371376
1706236379587096642,0.2393987774848938,9.770934104919435,-1.0523695945739746,0.02194233424961567,0.022933287546038628,-0.02800983376801014
1706236379599864105,0.20652198791503906,9.778317451477053,-1.0189765691757204,0.03856416419148445,0.018527233973145485,-0.02107406035065651
1706236379607351994,0.23705931007862094,9.712595939636232,-1.068402171134949,0.05300149321556091,0.0136863449588418,-0.01558347325772047
1706236379618106586,0.2037511169910431,9.769229888916016,-1.045701503753662,0.06294296681880951,0.009647817350924015,-0.013003204017877579
1706236379626345068,0.19303804636001587,9.761096954345703,-1.030175566673279,0.06732097268104553,0.006306005641818047,-0.013851831667125225
1706236379636615290,0.1915450841188431,9.783777236938477,-1.0542242527008057,0.0660548284649849,0.003811902366578579,-0.01729426719248295
1706236379650883772,0.1683252453804016,9.788114547729492,-1.0445665121078493,0.059757307171821594,0.0032817949540913105,-0.02156340330839157
1706236379656662290,0.1742392033338547,9.762072563171388,-1.0136651992797852,0.04968942701816559,0.005760113708674908,-0.025043470785021782
1706236379667168401,0.15644328296184543,9.793180465698242,-1.0436118841171267,0.037525780498981476,0.011026442982256413,-0.026540184393525124
1706236379677169049,0.13609734177589417,9.759400367736818,-1.0358953475952148,0.024870624765753746,0.017555173486471176,-0.025467148050665855
1706236379687201660,0.23034366965293884,9.770893096923828,-1.0227162837982178,0.013141419738531113,0.023374397307634354,-0.022342991083860397
1706236379696820586,0.15682755410671237,9.774617195129396,-1.028637766838074,0.004250962752848864,0.02688216231763363,-0.01832939311861992
1706236379707711938,0.15673595666885376,9.718534469604492,-1.0186477899551394,8.888584852684289e-05,0.027259238064289093,-0.014316393062472343
1706236379717204975,0.19494891166687012,9.831038475036623,-1.0397958755493164,0.0005752705037593842,0.024576906114816666,-0.010790178552269936
1706236379726596586,0.18404518067836764,9.753964424133303,-1.018672585487366,0.0038982811383903027,0.020260784775018692,-0.008140919730067253
1706236379737686549,0.19297972321510315,9.763127326965334,-1.0309326648712158,0.00850537046790123,0.016730111092329025,-0.006642242427915335
1706236379747855086,0.16292266547679904,9.75334358215332,-1.023369908332825,0.013474136590957642,0.015251073986291885,-0.006203013006597757
1706236379759969512,0.19117051362991333,9.779967308044435,-1.0148348808288574,0.01778928004205227,0.015127262100577354,-0.006358997896313667
1706236379768767697,0.155046284198761,9.76848888397217,-1.0137386322021484,0.020373286679387093,0.015321618877351284,-0.006406569387763739
1706236379777411142,0.1436637192964554,9.780964851379396,-1.0219556093215945,0.02041677199304104,0.01563507504761219,-0.005660561379045248
1706236379786993938,0.1475066840648651,9.776224136352539,-1.0214543342590332,0.017313772812485695,0.016426831483840942,-0.0039528473280370235
1706236379797774401,0.193452388048172,9.736416816711428,-1.026271462440491,0.0111827552318573,0.01779029704630375,-0.001842678408138454
1706236379807834049,0.16365753114223483,9.78068733215332,-1.052724838256836,0.0038574067875742912,0.01897665485739708,-0.00035787923843599856
1706236379819767883,0.13864253461360934,9.749531745910646,-0.9978141784667969,-0.0019402228062972426,0.01892944611608982,-0.00047623232239857316
1706236379830498679,0.18509256839752197,9.790111541748047,-1.0128169059753418,-0.004827649332582951,0.017446964979171753,-0.0021559554152190685
1706236379837366401,0.13148799538612366,9.756712913513185,-1.05554473400116,-0.005270394030958414,0.015421557240188122,-0.0041315690614283085
1706236379847007531,0.11787832528352739,9.755938529968263,-0.9809100031852723,-0.004761956166476011,0.013919424265623093,-0.005295726004987955
1706236379856660123,0.22527894377708435,9.81850814819336,-1.0360804796218874,-0.005012062378227711,0.01344512589275837,-0.005319346208125353
1706236379867955345,0.1422487497329712,9.74684810638428,-1.0205228328704834,-0.006239414680749178,0.014329414814710617,-0.004176457412540913
1706236379877299216,0.1248527318239212,9.72287368774414,-1.0081883668899538,-0.0070483083836734295,0.016454104334115982,-0.002274436643347144
1706236379891721679,0.1994953453540802,9.795196533203125,-1.0128231048583984,-0.006856062449514866,0.018239276483654976,-0.0002575631660874933
1706236379897735660,0.07257438451051713,9.778584480285646,-1.0429749488830566,-0.006535921711474657,0.01811480149626732,0.0014861749950796366
1706236379907876216,0.023881945759058,9.724183082580568,-0.9828082323074341,-0.008105134591460228,0.016466213390231133,0.0026301397010684013
1706236379918121068,0.013112591579556465,9.741269111633303,-0.9997649192810059,-0.0155188525095582,0.014164282009005547,0.0032530606258660555
1706236379927902420,0.41486430168151855,10.006009101867678,-1.0669082403182986,-0.030921220779418945,0.012119405902922153,0.004029335454106331
1706236379936400642,0.162064790725708,9.279350280761719,-1.0982081890106201,-0.0473075732588768,0.011853061616420746,0.004385131876915693
1706236379946558753,-0.20660510659217834,10.390198707580568,-0.9511290788650513,-0.05348985642194748,0.012901871465146542,0.001999586820602417
1706236379957481568,0.2064317762851715,9.127642631530763,-0.7308319211006166,-0.049814678728580475,0.01378079317510128,-0.0021567894145846367
1706236379966337345,0.027931531891226772,10.307898521423342,-1.4875537157058718,-0.04769892618060112,0.014277954585850239,-0.0023255629930645227
1706236379976854031,0.30363419651985174,9.442440032958984,-0.7954026460647583,-0.05313239246606827,0.014563574455678463,0.0021101166494190693
1706236379987075512,0.11261489987373352,9.960232734680178,-1.0389307737350466,-0.060444507747888565,0.01577616296708584,0.004312909208238125
1706236379997453549,0.05466022342443466,9.534436225891115,-1.2204073667526247,-0.06109214201569557,0.017919201403856277,0.0007892985595390201
1706236380006389049,0.19579418003559115,9.735819816589357,-0.8420338034629823,-0.05334106832742691,0.017135053873062134,-0.006967183202505112
1706236380016451586,0.08800426870584489,9.943178176879883,-1.0782979726791384,-0.04200003668665886,0.009921574965119362,-0.01615213416516781
1706236380029519623,0.2628602087497712,9.588877677917482,-1.022050380706787,-0.031567249447107315,-0.0009206512477248907,-0.022108955308794975
1706236380036475327,0.10369291156530382,9.908153533935547,-0.9827120304107666,-0.022863289341330528,-0.008610696531832218,-0.02162768505513668
1706236380046672105,0.16052335500717163,9.622929573059084,-1.034543752670288,-0.015007019974291325,-0.00970186572521925,-0.015533591620624065
1706236380056513068,0.16143317520618441,9.821210861206055,-1.0405296087265017,-0.008306283503770828,-0.005718414206057787,-0.006713389419019222
1706236380066810086,0.06516098231077196,9.700610160827638,-1.1065405607223513,-0.004413063637912273,-0.0003931355895474553,0.0008044912829063833
1706236380076742882,0.10788793116807939,9.811089515686037,-0.8615220785140991,-0.005335196387022734,0.0032790566328912973,0.0034699230454862118
1706236380087064438,0.07331158965826036,9.75832748413086,-1.1950652599334717,-0.012771401554346085,0.004900196101516485,0.0013926280662417412
1706236380096567679,0.10005898028612138,9.702144622802734,-0.9844647645950317,-0.026562146842479706,0.005652095191180706,-0.0030520984437316656
1706236380107230105,0.07943424582481384,9.806678771972656,-1.018719553947449,-0.0439583845436573,0.006000534165650606,-0.008720885030925274
1706236380117243623,0.05677324905991555,9.777563095092773,-1.021718978881836,-0.06113148480653763,0.00587326567620039,-0.014392298646271229
1706236380126303271,0.07860131561756134,9.7427453994751,-1.0073482990264893,-0.07529956102371216,0.006211949046701193,-0.017536919564008713
1706236380136364179,0.10178989171981812,9.766153335571289,-1.0645904541015625,-0.08528757095336914,0.00788000226020813,-0.016741059720516205
1706236380146591345,0.11122555285692216,9.793661117553711,-0.9675048589706421,-0.09043366461992264,0.010368285700678825,-0.012941279448568821
1706236380157530345,0.06989870220422746,9.7891321182251,-1.0727999210357666,-0.09027412533760071,0.01315968669950962,-0.00806165300309658
1706236380166660216,0.08168008923530579,9.709638595581055,-1.0057399272918701,-0.08578205853700638,0.01632094383239746,-0.0037968042306602
1706236380176794697,0.10688883811235429,9.760721206665039,-1.0450901985168457,-0.07961639016866684,0.01888914592564106,-0.0014705118956044316
1706236380187318123,0.1144947335124016,9.726972579956055,-1.0581492185592654,-0.07415663450956345,0.01870439015328884,-0.0018375510117039084
1706236380196519419,0.08731259405612946,9.775198936462404,-1.0366754531860352,-0.07000590115785599,0.01463901437819004,-0.005007962696254253
1706236380206523271,0.10060036927461626,9.732694625854492,-1.045180320739746,-0.06684049218893051,0.007900766097009182,-0.010457141324877739
1706236380216581401,0.09505420178174974,9.768096923828125,-1.0187674760818484,-0.06463062018156052,0.0010072642471641302,-0.01671270839869976
1706236380227343716,0.07440588623285295,9.744872093200685,-1.0583126544952393,-0.06367430090904236,-0.003879121271893382,-0.021776847541332245
1706236380236543882,0.08613184094429016,9.77517604827881,-1.0085576772689822,-0.06433836370706558,-0.005715606268495321,-0.02427312545478344
1706236380246536438,0.0679587721824646,9.786994934082031,-1.0263750553131104,-0.06688924133777618,-0.004320216365158558,-0.023848026990890503
1706236380257059067,0.07110094279050828,9.750193595886232,-1.0330615043640137,-0.07122376561164856,2.4307915737153962e-05,-0.020804766565561295
1706236380267387364,0.06108369678258896,9.759675979614258,-1.044898867607117,-0.07685839384794235,0.006218959577381611,-0.016193734481930733
1706236380276955882,0.06592612713575365,9.782319068908693,-1.065875768661499,-0.08311867713928223,0.01226111687719822,-0.01202079001814127
1706236380288891475,0.07218906283378601,9.765757560729982,-1.0494562387466433,-0.08920088410377502,0.016542667523026466,-0.010556066408753395
1706236380296976790,0.05563412606716156,9.722907066345217,-1.0706980228424072,-0.09425394237041473,0.01856013759970665,-0.013102191500365734
1706236380307094993,0.08915062248706818,9.751627922058107,-1.058791160583496,-0.09763114154338837,0.017959769815206528,-0.019326666370034218
1706236380317311216,0.08670875430107117,9.764434814453125,-1.0407764911651611,-0.09888235479593277,0.014417527243494987,-0.027503598481416702
1706236380326627104,0.07671807706356049,9.776879310607912,-1.0274195671081543,-0.09763633459806442,0.008970595896244049,-0.035009320825338364
1706236380336694938,0.08058568835258484,9.770833969116211,-1.0306555032730105,-0.09408146142959595,0.004178709350526333,-0.039069656282663345
1706236380346494641,0.09326764941215515,9.765087127685547,-1.0377042293548584,-0.08926700800657272,0.0024065594188869,-0.03808484971523285
1706236380357052141,0.0917091965675354,9.763400077819826,-1.0386266708374023,-0.08439186215400696,0.004222753923386335,-0.03262908384203911
1706236380367152049,0.087566576898098,9.762744903564453,-1.0473010540008545,-0.08012153953313828,0.008335104212164879,-0.025117971003055573
1706236380377249012,0.07459940761327745,9.756318092346193,-1.042527437210083,-0.07679668068885803,0.012673049233853817,-0.018468102440238
1706236380386765456,0.07004996389150621,9.743520736694336,-1.0678583383560183,-0.07492132484912872,0.01541847176849842,-0.014855286106467247
1706236380396817697,0.08851463347673418,9.740498542785646,-1.067176938056946,-0.07504259049892426,0.01541432086378336,-0.015302179381251335
1706236380407461456,0.09456698596477509,9.767836570739748,-1.0665632486343386,-0.07697944343090057,0.012432072311639786,-0.01978200301527977
1706236380416318882,0.07911866158246995,9.773232460021974,-1.0592918395996094,-0.07950695604085922,0.0076460037380456924,-0.027197780087590218
1706236380426543938,0.07800575345754625,9.751951217651367,-1.0468183755874636,-0.08128729462623596,0.0033601538743823767,-0.03544238582253456
1706236380436560512,0.07959458976984025,9.763055801391602,-1.026977300643921,-0.08193232864141464,0.001447250135242939,-0.0418970063328743
1706236380446678530,0.07626836001873016,9.771145820617678,-1.018512487411499,-0.08193030208349228,0.0022164424881339073,-0.04416707530617714
1706236380458241586,0.07878196239471436,9.773564338684084,-1.0425847768783572,-0.08193904906511307,0.004946741741150618,-0.0410185270011425
1706236380466483845,0.0878300815820694,9.772166252136232,-1.0215705633163454,-0.08228998631238937,0.008807647973299026,-0.033242758363485336
1706236380476538586,0.08923425525426866,9.761062622070312,-1.027461647987366,-0.08278068155050278,0.013007061555981636,-0.023349005728960037
1706236380489046419,0.08411826193332672,9.755356788635256,-1.0541071891784668,-0.08284414559602737,0.016562389209866524,-0.014210284687578678
1706236380496873604,0.09005262702703477,9.780986785888672,-1.0399729013442995,-0.0820702612400055,0.018506575375795364,-0.00816627498716116
1706236380506904919,0.08325289189815521,9.76814937591553,-1.0404069423675537,-0.08053707331418991,0.01863836497068405,-0.00652715377509594
1706236380516962290,0.08193351328372955,9.76983642578125,-1.0328828096389773,-0.07872764766216278,0.01775323785841465,-0.008950152434408665
1706236380526590067,0.0959189236164093,9.77488422393799,-1.0259343385696413,-0.07722489535808563,0.016887610778212547,-0.013512025587260723
1706236380536761956,0.08898776769638062,9.793787002563477,-1.019647002220154,-0.07628341764211655,0.016772717237472534,-0.017676426097750664
1706236380546836919,0.09296875447034837,9.776565551757812,-1.0154101848602295,-0.07567687332630157,0.017943749204277992,-0.0193644929677248
1706236380557936882,0.09369622915983201,9.769795417785646,-1.0074124336242676,-0.0750291496515274,0.020525012165308,-0.017612522467970848
1706236380567081401,0.10627561807632446,9.752613067626953,-1.0205327272415163,-0.07406286895275116,0.02364971488714218,-0.01272375788539648
1706236380577138697,0.11124815791845323,9.768824577331545,-1.027339577674866,-0.07247760891914368,0.025646835565567017,-0.0061362567357718945
1706236380587456586,0.11252982914447784,9.764120101928711,-1.0312608480453493,-0.06988829374313354,0.02523050457239151,-3.0859118851367384e-05
1706236380596340012,0.10701882094144823,9.755002975463867,-1.0281553268432617,-0.06613506376743317,0.022404788061976433,0.003547963686287403
1706236380616314234,0.11985463649034502,9.75297737121582,-1.0289552211761475,-0.061593227088451385,0.018101448193192482,0.0036796799395233393
1706236380618559567,0.13207970559597018,9.760419845581055,-1.0333631038665771,-0.05688650533556938,0.013350334018468857,0.0008599007269367576
1706236380630720771,0.1267552822828293,9.767519950866701,-1.0256967544555664,-0.05228881537914276,0.009068818762898445,-0.0035261770244687796
1706236380636633160,0.11592571437358856,9.779312133789062,-1.0185605287551882,-0.04777899011969566,0.00623489310964942,-0.007871466688811779
1706236380646955752,0.12457424402236938,9.773549079895021,-1.0110416412353516,-0.04364249110221863,0.005761892069131136,-0.010709983296692371
1706236380666323919,0.12437730282545091,9.774223327636719,-1.0243915319442751,-0.040500886738300323,0.007979773916304111,-0.011064480058848858
1706236380676417715,0.11210472136735918,9.783018112182617,-1.0189348459243777,-0.03878113627433777,0.01229344867169857,-0.008936090394854546
1706236380680555419,0.11251436173915863,9.773221969604492,-1.020055174827576,-0.038584113121032715,0.017502421513199806,-0.005359020084142685
1706236380691704475,0.11472825706005096,9.757372856140138,-1.0216861963272097,-0.039857249706983566,0.02226538583636284,-0.0017430507577955723
1706236380697599419,0.11351381242275238,9.76003646850586,-1.0165024995803835,-0.04229383543133736,0.02522810734808445,0.0008608987554907799
1706236380711908623,0.1207697317004204,9.774548530578615,-1.0056680440902712,-0.04521143063902855,0.025428324937820435,0.002147271065041423
1706236380716518586,0.12323763221502305,9.789100646972656,-1.0200231075286865,-0.04770467057824135,0.023168567568063736,0.0025661971885710955
1706236380726507030,0.1285938024520874,9.774904251098633,-1.0024878978729248,-0.048921626061201096,0.020190270617604256,0.0028642930556088686
1706236380737097715,0.1323786973953247,9.775909423828125,-1.0084173679351807,-0.048329196870326996,0.018463242799043655,0.0035983501002192497
1706236380747422012,0.13375295698642733,9.77354145050049,-1.0071078538894656,-0.04587491229176521,0.018789833411574364,0.005023428704589605
1706236380756521049,0.14257052540779114,9.77490234375,-1.009501099586487,-0.04195273295044899,0.020628564059734344,0.007048683241009712
1706236380766555178,0.14722211658954623,9.790064811706545,-1.0057159662246706,-0.037154171615839005,0.022948142141103745,0.009248417802155018
1706236380778658178,0.13993494212627414,9.769471168518068,-1.0152721405029297,-0.032027728855609894,0.02504945546388626,0.011094067245721817
1706236380787646512,0.14118315279483798,9.761734008789062,-1.028047800064087,-0.027130840346217155,0.02655811980366707,0.01206978689879179
1706236380796484141,0.14225921034812927,9.77556896209717,-1.0198587179183962,-0.023113543167710304,0.026992836967110634,0.011629302985966206
1706236380806545734,0.14611549675464633,9.76106357574463,-1.0225965976715088,-0.02046099677681923,0.02596219815313816,0.009470990858972073
1706236380816547456,0.14117160439491272,9.757330894470217,-1.0111078023910525,-0.01919710449874401,0.023565437644720078,0.0060063316486775875
1706236380831673604,0.14598223567008972,9.765409469604492,-1.0075218677520752,-0.01895471103489399,0.020223671570420265,0.0023998392280191183
1706236380839697289,0.1330721080303192,9.773203849792482,-1.009538769721985,-0.019293149933218956,0.016555242240428925,5.6327920901821926e-05
1706236380847041845,0.12045126408338548,9.785994529724123,-1.010819673538208,-0.020067598670721054,0.0135649424046278,-0.0001337106805294752
1706236380857429993,0.12170685082674028,9.775875091552734,-1.0131416320800781,-0.021642912179231644,0.012454264797270298,0.0017147354083135724
1706236380866794419,0.1115141585469246,9.770798683166506,-1.0142261981964111,-0.024602126330137253,0.013839086517691612,0.004629823844879866
1706236380879742623,0.10358759760856628,9.775543212890625,-1.020104169845581,-0.029226547107100487,0.017140597105026245,0.007347633130848408
1706236380887381993,0.10624691098928453,9.7772216796875,-1.022567391395569,-0.03532473370432854,0.02096717618405819,0.008819444105029106
1706236380899678623,0.10515333712100983,9.754284858703615,-1.0306215286254883,-0.04227343946695328,0.02397557720541954,0.008457357995212078
1706236380909674012,0.09198741614818573,9.751580238342287,-1.0360264778137207,-0.049159854650497437,0.025131849572062492,0.006142325699329376
1706236380916992400,0.11387568712234497,9.757993698120117,-1.0273213386535645,-0.05513015761971474,0.023697471246123314,0.0021663662046194077
1706236380927177178,0.1046113669872284,9.766777038574219,-1.0237176418304443,-0.059539344161748886,0.019732246175408363,-0.0026938191149383783
1706236380937827215,0.08745247870683671,9.758304595947266,-1.017090082168579,-0.06201990693807602,0.014462921768426895,-0.007173165678977966
1706236380946290289,0.10684900730848314,9.754280090332031,-1.0170106887817383,-0.06284795701503754,0.009605265222489834,-0.009925639256834984
1706236380956297604,0.0986033007502556,9.754243850708008,-1.0162717103958132,-0.0628368929028511,0.0062522850930690765,-0.010154884308576584
1706236380966454715,0.08998411148786546,9.763407707214357,-1.032778024673462,-0.06269960850477219,0.004539436660706997,-0.008060197345912457
1706236380977072160,0.09679599106311798,9.755929946899414,-1.0285084247589111,-0.06288905441761017,0.004124917555600405,-0.004872974473983049
1706236380988232937,0.0832623541355133,9.75259017944336,-1.0322129726409912,-0.0637376606464386,0.004564901813864708,-0.002292538993060589
1706236380997177048,0.07411091029644012,9.74785900115967,-1.042030215263367,-0.06548161059617996,0.0052613792940974236,-0.00161143543664366
1706236381008475734,0.07919219881296159,9.762382507324219,-1.0403038263320925,-0.06832972913980484,0.005559348966926336,-0.0032852881122380495
1706236381017068697,0.08294986188411713,9.756670951843263,-1.0379878282547,-0.0722794309258461,0.005210698116570711,-0.006993865594267845
1706236381027279456,0.06963714212179185,9.75156879425049,-1.0369021892547607,-0.07681456208229065,0.004525327123701572,-0.011780714616179466
1706236381037159993,0.0682036429643631,9.765071868896484,-1.0306928157806396,-0.08119924366474152,0.003950658719986677,-0.016330689191818237
1706236381046899289,0.05800112709403039,9.76842784881592,-1.0219057798385622,-0.08509168028831482,0.0038402953650802374,-0.019386203959584236
1706236381056838363,0.07385565340518951,9.75591564178467,-1.0297911167144775,-0.0886123925447464,0.004520304035395384,-0.020107921212911606
1706236381066773826,0.07150059938430786,9.752893447875977,-1.0316654443740847,-0.09181489795446396,0.005986383650451899,-0.018431155011057854
1706236381076807993,0.07729607075452806,9.744799613952638,-1.049446225166321,-0.09430237859487534,0.00754838902503252,-0.015308641828596592
1706236381086685623,0.07636225968599321,9.758318901062013,-1.0335683822631836,-0.09547384828329086,0.008191239088773727,-0.01240900345146656
1706236381096670882,0.08784826099872589,9.743810653686523,-1.0479843616485596,-0.09497532993555069,0.007356749847531319,-0.011212111450731754
1706236381116807456,0.0798732340335846,9.747154235839844,-1.0393327474594118,-0.08965186774730682,0.002614847384393215,-0.015100392512977123
1706236381127001067,0.08067399263381958,9.757302284240724,-1.0322700738906863,-0.08621257543563843,0.0001966701092896983,-0.01866992749273777
1706236381136956919,0.0790044367313385,9.763403892517092,-1.0317033529281618,-0.08342898637056351,-0.0013198492815718055,-0.021591035649180412
1706236381146402011,0.08671826869249345,9.755293846130373,-1.0352638959884646,-0.08175850659608841,-0.0014583212323486805,-0.02276715077459812
1706236381156352511,0.0880044773221016,9.75594997406006,-1.026558041572571,-0.08107809722423553,-0.0001546562707517296,-0.021882085129618645
1706236381166476771,0.10089214146137238,9.752256393432617,-1.0367547273635866,-0.08075810968875885,0.0020353051368147135,-0.01941457949578762
1706236381177196474,0.10254964977502824,9.764742851257326,-1.0367891788482666,-0.07989941537380219,0.004226792603731155,-0.01631978340446949
1706236381187663771,0.10935303568840027,9.751942634582521,-1.0492471456527712,-0.07770069688558578,0.005798707716166973,-0.013747675344347954
1706236381196542215,0.10320652276277544,9.749921798706055,-1.0477782487869265,-0.07386330515146255,0.006554263643920422,-0.012766888365149498
1706236381206425289,0.1131172627210617,9.748586654663086,-1.0456650257110596,-0.06879241019487381,0.006415284238755703,-0.013965041376650333
1706236381216405234,0.12043126672506334,9.75936508178711,-1.0391201972961426,-0.06331060826778412,0.0053657954558730125,-0.01706649735569954
1706236381226573122,0.12400609254837036,9.760399818420412,-1.0423862934112549,-0.058060768991708755,0.0037765202578157187,-0.020950527861714363
1706236381236386345,0.12148120254278184,9.780312538146974,-1.0382237434387207,-0.053246863186359406,0.002543575596064329,-0.024230118840932846
1706236381247024696,0.1351534128189087,9.771489143371584,-1.0180017948150635,-0.048847366124391556,0.0027920466382056475,-0.02584020234644413
1706236381256454789,0.13273310661315918,9.777917861938477,-1.0253015756607058,-0.044769033789634705,0.00526342773810029,-0.025137534365057945
1706236381266490122,0.1381281614303589,9.753629684448242,-1.0286933183670046,-0.040848806500434875,0.009682627394795418,-0.021985236555337906
1706236381277105141,0.14274543523788452,9.763089179992678,-1.0354652404785156,-0.036951035261154175,0.0146171348169446,-0.017124470323324203
1706236381287034493,0.14367254078388217,9.756382942199709,-1.0460132360458376,-0.03304068744182587,0.018172092735767365,-0.012181484140455723
1706236381297340345,0.1463449150323868,9.750282287597656,-1.0401391983032227,-0.029167255386710167,0.01905219815671444,-0.00899571180343628
1706236381307347771,0.14247801899909973,9.771188735961914,-1.0214480161666872,-0.02548646181821823,0.017142053693532944,-0.008598031476140022
1706236381316990919,0.1259405463933945,9.764815330505373,-1.038731336593628,-0.02237098105251789,0.013516384176909924,-0.010514052584767342
1706236381327200159,0.13356660306453708,9.767493247985842,-1.03421950340271,-0.02049189805984497,0.009952460415661335,-0.013248861767351627
1706236381337151474,0.14525730907917025,9.773233413696289,-1.0243680477142334,-0.020429227501153946,0.007986870594322681,-0.015449565835297108
1706236381347333937,0.14444005489349365,9.76443862915039,-1.02455472946167,-0.021928204223513603,0.008234038017690182,-0.016354668885469437
1706236381357362752,0.14713138341903687,9.768152236938477,-1.021820068359375,-0.023824051022529602,0.010323969647288322,-0.01563376747071743
1706236381367273900,0.15079540014266968,9.757379531860352,-1.0302112102508545,-0.02482532151043415,0.013187720440328121,-0.013420983217656612
1706236381377134826,0.15886655449867249,9.773887634277344,-1.017830014228821,-0.02417537197470665,0.015603553503751755,-0.010367246344685555
1706236381387130030,0.1626400798559189,9.763784408569336,-1.0231567621231081,-0.02170897275209427,0.0168463084846735,-0.007299620658159256
1706236381397243919,0.16256451606750488,9.76680088043213,-1.0230600833892822,-0.017679771408438683,0.016936974599957466,-0.004791161511093378
1706236381407067974,0.16038137674331665,9.764808654785156,-1.024421811103821,-0.012695987708866596,0.016310114413499832,-0.0031001942697912455
1706236381416814882,0.15422764420509338,9.770502090454102,-1.012470841407776,-0.007693176623433828,0.015433990396559238,-0.00224374420940876
1706236381426961845,0.14409983158111572,9.762413978576662,-1.0228397846221924,-0.003798120189458132,0.014693953096866608,-0.0019391290843486786
1706236381436850789,0.13934054970741272,9.770849227905273,-1.010160565376282,-0.002082966500893235,0.014315175823867321,-0.001704585854895413
1706236381447051493,0.14645814895629883,9.778949737548828,-1.017130494117737,-0.0031695167999714613,0.014391534961760044,-0.0011323302751407027
1706236381457086474,0.13525009155273438,9.7705078125,-1.0142637491226199,-0.006822011433541775,0.015063777565956116,-5.4402873502112925e-05
1706236381467372937,0.13820800185203552,9.762745857238771,-1.015630125999451,-0.012020012363791466,0.01637703739106655,0.0014074823120608926
1706236381476434437,0.1346321403980255,9.775917053222656,-1.0166387557983398,-0.017522454261779785,0.017951183021068573,0.0029151313938200474
1706236381536891233,0.1650701016187668,9.765122413635256,-1.0264291763305664,-0.018911123275756836,0.014443907886743546,0.0016280505806207657
1706236381547198826,0.17018502950668335,9.770510673522951,-1.019066333770752,-0.015555580146610737,0.013978920876979828,0.0011364732636138797
1706236381557395974,0.16022716462612155,9.762749671936037,-1.020689129829407,-0.012101178988814354,0.014448121190071106,0.0005599858704954386
1706236381567356622,0.16121976077556613,9.768470764160156,-1.0143401622772217,-0.008348124101758003,0.015382694080471992,-0.00018425147572997957
1706236381577006678,0.15952971577644348,9.766454696655273,-1.0289021730422976,-0.004646671004593372,0.016210181638598442,-0.0008459314121864736
1706236381586931419,0.14603476226329806,9.771839141845703,-1.0255529880523682,-0.001782550709322095,0.016619211062788963,-0.0012843920849263668
1706236381596825678,0.1483173668384552,9.761390686035156,-1.0240386724472048,-0.0005773757002316415,0.01663946360349655,-0.0017039974918588996
1706236381606741604,0.14623460173606873,9.769172668457031,-1.031341314315796,-0.0015331411268562078,0.016419032588601112,-0.002401502337306738
1706236381616407956,0.13976179063320163,9.75935459136963,-1.0195981264114382,-0.004533405415713787,0.01602073386311531,-0.0034677882213145494
1706236381626682141,0.14354856312274936,9.778247833251953,-1.0200749635696413,-0.008884545415639877,0.015483043156564236,-0.004682423546910286
1706236381636573789,0.14102269709110263,9.771171569824219,-1.0189107656478884,-0.0136415408924222,0.015040379017591476,-0.005547435488551855
1706236381647330233,0.14400245249271396,9.776920318603516,-1.0150868892669678,-0.017889713868498802,0.015143071301281452,-0.005561824422329664
1706236381657337622,0.15753026306629184,9.767460823059084,-1.0211310386657715,-0.02088349126279354,0.0160959642380476,-0.004549743141978979
1706236381666411659,0.16295656561851501,9.749582290649414,-1.0248620510101318,-0.022005779668688774,0.01760231889784336,-0.0028067913372069597
1706236381676343770,0.15106754004955295,9.759359359741211,-1.0313377380371094,-0.020842278376221657,0.018663058057427406,-0.001070666592568159
1706236381687251530,0.15658925473690036,9.759352684020998,-1.0304123163223269,-0.017620090395212173,0.01819286122918129,-0.00024664850207045674
1706236381697184641,0.14979846775531772,9.770509719848633,-1.030166029930115,-0.01340043917298317,0.015980394557118416,-0.0009324690909124911
1706236381708394437,0.1571261137723923,9.751637458801271,-1.036457657814026,-0.009559736587107182,0.012888903729617596,-0.0031016371212899685
1706236381717000363,0.1534232795238495,9.758369445800781,-1.0305382013320925,-0.007066881749778986,0.010026817210018635,-0.0062098875641822815
1706236381731624381,0.13789749145507812,9.76070785522461,-1.023649573326111,-0.006239478010684252,0.007963619194924831,-0.009458649903535843
1706236381737080696,0.14391279220581055,9.768131256103516,-1.0302377939224245,-0.007056517992168665,0.006817203015089035,-0.011971146799623966
1706236381747258659,0.1396043598651886,9.769812583923342,-1.0159471035003662,-0.009387868456542492,0.00669362535700202,-0.01305356714874506
1706236381756993844,0.14254124462604525,9.767788887023928,-1.0176526308059695,-0.012828212231397629,0.007729075849056244,-0.012410088442265987
1706236381766896289,0.14010952413082126,9.760708808898928,-1.0199183225631716,-0.016640769317746162,0.009776053950190544,-0.010145829059183598
1706236381783043770,0.14141066372394565,9.76137924194336,-1.0207155942916872,-0.020029211416840553,0.012191143818199635,-0.006793386768549681
1706236381788360900,0.13754288852214816,9.762388229370117,-1.0264647006988525,-0.022455574944615364,0.014074183069169521,-0.0032803956419229507
1706236381806997104,0.12636961042881015,9.765779495239258,-1.0235576629638672,-0.02441355586051941,0.014367062598466873,0.0006893171230331063
1706236381817388733,0.13250331580638888,9.770848274230959,-1.026203751564026,-0.024888910353183746,0.013284645043313503,0.0005962994764558971
1706236381826492918,0.1504556089639664,9.768130302429201,-1.0115363597869873,-0.025729231536388397,0.012338626198470592,-0.00041945514385588467
1706236381838802381,0.14332748949527743,9.766085624694826,-1.0116823911666872,-0.026731280609965324,0.01215280033648014,-0.0016135703772306442
1706236381846920233,0.1391096264123917,9.761044502258303,-1.021991848945618,-0.02712363936007023,0.012813727371394634,-0.002134426962584257
1706236381858540159,0.14707958698272705,9.76745128631592,-1.0104995965957644,-0.02640504576265812,0.0138613386079669,-0.0015367399901151657
1706236381867383196,0.14432410895824435,9.763739585876467,-1.0060564279556277,-0.024726318195462227,0.014702807180583477,2.841298919520341e-05
1706236381877051511,0.13912360370159152,9.754944801330568,-1.0072046518325808,-0.022600753232836723,0.014968645758926868,0.0022416533902287483
1706236381887660104,0.1471749693155289,9.756624221801758,-1.0090527534484863,-0.02062518335878849,0.014462701044976711,0.004861739464104176
1706236381897538159,0.14710684120655063,9.766110420227053,-1.0172560214996338,-0.01923694834113121,0.013122759759426117,0.00752008194103837
1706236381907264529,0.14497183263301852,9.75935173034668,-1.0112167596817019,-0.0184839628636837,0.01125264074653387,0.00961377751082182
1706236381917652122,0.1514426022768021,9.772197723388672,-1.0147368907928467,-0.018108507618308067,0.009534677490592003,0.010592943988740444
1706236381930217215,0.14629417657852173,9.765778541564943,-1.0100547075271609,-0.017791559919714928,0.008685439825057983,0.010343272238969803
1706236381937478974,0.13612142205238342,9.77317523956299,-1.0095133781433105,-0.017377980053424835,0.009126224555075169,0.009263957850635052
1706236381947022863,0.16134074330329895,9.775886535644531,-1.0124176740646365,-0.01698562502861023,0.010859637521207333,0.008017796091735363
1706236381956936918,0.15607099235057834,9.771830558776857,-1.007582187652588,-0.016650382429361343,0.01355821918696165,0.007172048091888428
1706236381971167511,0.15178176760673523,9.767448425292969,-1.0099124908447266,-0.01600065641105175,0.016656294465065002,0.006991145201027393
1706236381976812085,0.14248092472553256,9.765412330627443,-1.0023957490921023,-0.014743155799806118,0.019374530762434006,0.00748533196747303
1706236381986641974,0.1337600499391556,9.749550819396974,-1.0053817033767702,-0.013312633149325848,0.020859960466623306,0.008558941073715687
1706236381997316474,0.14266464114189148,9.756628990173342,-1.0062161684036257,-0.012713157571852207,0.020416507497429848,0.01006130501627922
1706236382007683159,0.131802499294281,9.764061927795412,-1.007749319076538,-0.013731583021581173,0.01786767691373825,0.011715836822986603
1706236382016511733,0.13150468468666077,9.764407157897951,-1.014514684677124,-0.016425300389528275,0.013945701532065868,0.013091780245304108
1706236382026476918,0.1106468513607979,9.76371955871582,-1.0120270252227783,-0.020378299057483673,0.010083027184009552,0.013713407330214977
1706236382036807900,0.08089519292116167,9.764387130737305,-1.0138505697250368,-0.025419490411877632,0.007578237913548946,0.013275676406919956
1706236382046502066,0.04911186546087265,9.75358295440674,-1.0190064907073975,-0.03225696086883545,0.0069058919325470924,0.011815155856311321
1706236382056508233,0.026803126558661464,9.750845909118654,-1.0048444271087646,-0.04244362190365791,0.007555906195193529,0.009696533903479576
1706236382066973289,0.023457085713744167,9.751883506774904,-1.0137219429016113,-0.057376667857170105,0.008383010514080524,0.007535948883742094
1706236382076736400,0.032739985734224326,9.744093894958498,-1.0035465955734255,-0.07687793672084808,0.008296910673379898,0.006039962638169527
1706236382088048344,0.05847256258130074,9.74547004699707,-1.0206360816955566,-0.09837128221988678,0.006771929562091827,0.005639365874230862
1706236382096832770,0.0676863417029381,9.736692428588867,-1.0128803253173828,-0.1173773854970932,0.0038737719878554344,0.006169314030557871
1706236382106874400,0.09007410705089569,9.739060401916506,-1.016449570655823,-0.12925276160240173,2.6107403755304404e-05,0.006970396265387535
1706236382117477159,0.10838156938552856,9.738077163696289,-1.0276345014572146,-0.1310974657535553,-0.0042010401375591755,0.0073210676200687885
1706236382126918307,0.08716291934251787,9.742105484008789,-1.02113676071167,-0.12280579656362534,-0.008178448304533958,0.0067116860300302505
1706236382137344048,0.0915120914578438,9.744141578674318,-1.0183818340301514,-0.10723521560430527,-0.01127389632165432,0.004985332023352385
1706236382147619437,0.07977606356143951,9.753276824951172,-1.034090280532837,-0.08937329798936844,-0.012949757277965546,0.0024569539818912745
1706236382157034122,0.0700429752469063,9.750901222229006,-1.0272351503372195,-0.07445748150348663,-0.012863902375102043,-0.00036659525358118117
1706236382167182270,0.06752781569957733,9.755270004272461,-1.031860947608948,-0.06613656878471375,-0.011003532446920872,-0.003173153381794691
1706236382176845159,0.06885395199060441,9.751259803771974,-1.0325249433517458,-0.06554371863603592,-0.007799175567924976,-0.005816659424453974
1706236382187832326,0.05812997743487359,9.757316589355469,-1.0281342267990115,-0.07135258615016937,-0.0040301913395524025,-0.008159298449754715
1706236382197006029,0.06542406976222992,9.76102066040039,-1.0371752977371218,-0.08073662966489792,-0.00047688407357782125,-0.01005837693810463
1706236382206682289,0.07094079256057739,9.758672714233398,-1.0299168825149538,-0.0905940979719162,0.0024314289912581444,-0.011447038501501083
1706236382216622640,0.06789858639240265,9.751239776611328,-1.026551127433777,-0.09837204217910767,0.004598572850227356,-0.01234227791428566
1706236382228440826,0.07570622116327287,9.751237869262695,-1.0276904106140137,-0.10257282108068466,0.005934455431997776,-0.012697872705757618
1706236382237052011,0.0857195630669594,9.745171546936037,-1.0263142585754395,-0.10291393846273422,0.0062146843411028385,-0.012399080209434032
1706236382247183992,0.0780032053589821,9.750908851623537,-1.0303361415863037,-0.1000077873468399,0.005283922888338566,-0.01147807389497757
1706236382257503455,0.085126169025898,9.759664535522461,-1.0224021673202517,-0.09499399363994598,0.0033743195235729218,-0.010199671611189842
1706236382266418511,0.07680104672908783,9.754619598388672,-1.0238620042800906,-0.0893063172698021,0.0012421132996678352,-0.008869219571352005
1706236382277257677,0.08128400892019273,9.75831699371338,-1.02203369140625,-0.08433566987514496,-0.00017015266348607838,-0.007620202377438545
1706236382287995844,0.08781026303768158,9.764413833618164,-1.0212070941925049,-0.08099831640720367,-0.0002708494430407882,-0.006432867608964443
1706236382297201955,0.08542309701442719,9.762725830078125,-1.0269626379013064,-0.07941541075706482,0.0010289927013218403,-0.005294825881719589
1706236382306892511,0.08885636180639268,9.77013683319092,-1.0268064737319949,-0.0790049359202385,0.0034787305630743504,-0.004335852339863777
1706236382317025659,0.09299463778734209,9.769816398620607,-1.018122911453247,-0.07894204556941986,0.006662121508270502,-0.0037756897509098053
1706236382327835177,0.09616066515445709,9.775553703308107,-1.0287533998489382,-0.07851884514093399,0.010159162804484367,-0.003675933228805661
1706236382336430233,0.09724876284599304,9.781941413879396,-1.014350414276123,-0.07728443294763565,0.01368633471429348,-0.0038466721307486296
1706236382346535622,0.08509210497140886,9.78329372406006,-1.0148365497589111,-0.07519891113042831,0.017175713554024696,-0.003934776410460472
1706236382356606066,0.09049776196479797,9.775172233581545,-1.0041966438293457,-0.07277506589889526,0.020654698833823204,-0.003452594857662916
1706236382367347251,0.10138054937124254,9.77181625366211,-1.0081605911254883,-0.07079381495714188,0.02390570193529129,-0.0019061700440943241
1706236382377079974,0.0865902304649353,9.789065361022951,-1.0203239917755127,-0.06967395544052124,0.026418156921863556,0.0008143262239173055
1706236382387159622,0.1034156084060669,9.800497055053711,-1.0055601596832275,-0.06928302347660065,0.028004663065075874,0.004131958354264498
1706236382396893362,0.09948108345270158,9.784306526184084,-1.0221222639083865,-0.06919900327920914,0.029264794662594795,0.007066299673169851
1706236382406568122,0.10832154750823975,9.787349700927734,-1.0167157649993896,-0.06887384504079819,0.030969984829425812,0.00880173034965992
1706236382416684122,0.09349665790796281,9.778218269348146,-1.0085870027542116,-0.06785682588815689,0.03314681351184845,0.009003411047160625
1706236382436850825,0.10796882212162018,9.778575897216797,-1.015333890914917,-0.06412256509065628,0.03570381924510002,0.006761812139302492
1706236382447006529,0.11276587843894958,9.775538444519045,-1.0109673738479616,-0.062096334993839264,0.034712910652160645,0.006057879887521267
1706236382457281196,0.12333843857049943,9.778906822204592,-1.0172437429428103,-0.05999545007944107,0.03234177827835083,0.006087595596909523
1706236382467298548,0.1179899647831917,9.78499984741211,-1.0177223682403564,-0.057494841516017914,0.029423896223306656,0.006479856092482805
1706236382478327566,0.12545153498649597,9.781954765319826,-1.0209265947341921,-0.054336823523044586,0.026982378214597702,0.006665164139121771
1706236382488255881,0.1187114641070366,9.775232315063477,-1.0264655351638796,-0.05062035471200943,0.02576957456767559,0.006157349795103073
1706236382496441788,0.11418513208627702,9.781281471252443,-1.0246011018753054,-0.046866241842508316,0.025857513770461082,0.00470325443893671
1706236382507227862,0.12005594372749329,9.789393424987795,-1.0266177654266357,-0.04384452849626541,0.02677598036825657,0.0023565455339848995
1706236382517430770,0.1260202080011368,9.771494865417482,-1.0199332237243652,-0.04212665557861328,0.02802807278931141,-0.0004845928633585572
1706236382529922251,0.12396594882011414,9.777582168579102,-1.0263363122940066,-0.04163014143705368,0.02919268235564232,-0.0031758954282850027
1706236382546808973,0.13157503306865695,9.770153045654297,-1.021651864051819,-0.041239216923713684,0.02936604991555214,-0.00627424381673336
1706236382556725085,0.1361752450466156,9.773548126220703,-1.023548722267151,-0.039730001240968704,0.027923371642827988,-0.006683994084596634
1706236382566967418,0.13039955496788025,9.750914573669435,-1.0212700366973877,-0.037082914263010025,0.025646904483437538,-0.006544486153870821
1706236382576641733,0.11704772710800171,9.760032653808594,-1.023123383522034,-0.03399304673075676,0.022680968046188354,-0.00595285277813673
1706236382607269085,0.08420024812221527,9.75968647003174,-1.0242743492126465,-0.03594142943620682,0.011377941817045212,-0.003803832223638892
1706236382677184844,0.11229042708873749,9.76343631744385,-1.0292838811874392,-0.06253300607204437,0.008607256226241589,-0.012076089158654213
1706236382878606844,0.1229640766978264,9.748554229736328,-1.013991117477417,-0.06328514963388443,0.01269769761711359,0.007450030650943518
1706236382893044621,0.12341857701539995,9.756649971008303,-1.0147110223770144,-0.05786054953932762,0.010413567535579205,0.007284646853804588
1706236382967652288,0.08887384086847307,9.758655548095703,-1.0073344707489014,-0.08303457498550415,0.01079342421144247,0.009789950214326382
1706236382977351103,0.09349822998046875,9.751572608947756,-1.0107600688934326,-0.09072638303041458,0.013033444993197918,0.00950403232127428
1706236383019057047,0.11540307104587555,9.751913070678711,-1.0064756870269775,-0.07412822544574738,0.007544215768575668,0.012155311182141304
1706236383037026195,0.12576815485954285,9.754261016845703,-1.0060677528381348,-0.05404351279139519,0.001805025851354003,0.014061716385185719
1706236383077708918,0.12106604129076005,9.762343406677248,-0.9938845634460449,-0.04233428090810776,0.006608512252569199,0.01650957204401493
1706236383097247825,0.12256575375795366,9.773843765258789,-0.9971083402633667,-0.04292894899845123,0.013946895487606525,0.01770908385515213
1706236383107366455,0.11920072138309479,9.7748498916626,-1.0063440799713135,-0.0429132841527462,0.01641198806464672,0.018443960696458817
1706236383117960714,0.11714953184127808,9.772146224975586,-1.0005725622177126,-0.042745012789964676,0.017980489879846573,0.018838683143258095
1706236383127690177,0.11990433931350708,9.767728805541992,-0.991982102394104,-0.04263753816485405,0.019025683403015137,0.01881231553852558
1706236383136952214,0.12655854225158691,9.771821022033693,-1.0029356479644775,-0.042731378227472305,0.019737007096409798,0.018636323511600494
1706236383146896103,0.13707560300827026,9.766715049743654,-0.996599555015564,-0.04282481595873833,0.020075418055057526,0.018693583086133003
1706236383157567973,0.13515011966228488,9.777886390686037,-1.0007127523422243,-0.042317718267440796,0.02001524530351162,0.019113721325993538
1706236383166675436,0.1374161392450333,9.771468162536623,-1.0025620460510254,-0.04059913754463196,0.019738420844078064,0.019721249118447304
1706236383176941603,0.14141969382762912,9.763390541076662,-1.01841938495636,-0.03753894940018654,0.019527096301317215,0.02012014389038086
1706236383187019288,0.13956651091575623,9.761338233947756,-1.014552116394043,-0.03356476128101349,0.01937943883240223,0.019702211022377014
1706236383197430584,0.14574280381202698,9.76439094543457,-1.0189517736434939,-0.0293672364205122,0.018909230828285217,0.017889752984046936
1706236383207585806,0.13522109389305115,9.761322021484375,-1.0200959444046023,-0.02560894936323166,0.017763596028089523,0.014575659297406673
1706236383217657881,0.13626697659492493,9.764730453491211,-1.0273213386535645,-0.022834308445453644,0.015987936407327652,0.010215189307928085
1706236383226776103,0.13839519023895264,9.763039588928224,-1.0195468664169314,-0.021437954157590866,0.013981018215417862,0.005517261568456888
1706236383237162158,0.13500405848026278,9.77149295806885,-1.0371365547180176,-0.02149081788957119,0.012276624329388142,0.0011326110688969493
1706236383247631140,0.12827484309673312,9.75460720062256,-1.0316718816757204,-0.022692013531923294,0.011307653039693832,-0.002596750156953931
1706236383257824584,0.1477976590394974,9.769116401672365,-1.0387409925460818,-0.024550875648856163,0.011144361458718777,-0.005747802555561066
1706236383267180047,0.12231013178825378,9.762027740478516,-1.0248073339462282,-0.026489505544304848,0.011490100994706154,-0.008541548624634743
1706236383277187473,0.12695403397083285,9.759359359741211,-1.0433769226074219,-0.02808922342956066,0.011969870887696743,-0.01098623313009739
1706236383287466973,0.1266360580921173,9.760713577270508,-1.035100817680359,-0.02943461574614048,0.012264378368854523,-0.012963893823325634
1706236383297040010,0.11841294169425964,9.764062881469727,-1.0339546203613281,-0.03092615120112896,0.012145530432462692,-0.014486541040241718
1706236383307280547,0.12695483863353732,9.768449783325195,-1.0373960733413699,-0.032831065356731415,0.011662947945296764,-0.015619068406522274
1706236383326741806,0.14221169054508212,9.755288124084474,-1.0433818101882937,-0.03691808134317398,0.011136207729578018,-0.017158711329102516
1706236383336942510,0.13059829175472262,9.760016441345217,-1.0449284315109255,-0.037572141736745834,0.011422313749790192,-0.018244542181491852
1706236383346925992,0.1361685544252396,9.74854850769043,-1.0394136905670166,-0.036517973989248276,0.011544622480869293,-0.0198358241468668
1706236383360955214,0.1266429573297501,9.771820068359375,-1.0323458909988406,-0.034155428409576416,0.011000847443938255,-0.021586062386631966
1706236383367721603,0.13912013173103333,9.760701179504396,-1.048649787902832,-0.03147950395941734,0.009845282882452011,-0.022847957909107208
1706236383376693843,0.12961147725582126,9.76845455169678,-1.038739085197449,-0.029400788247585297,0.008738800883293152,-0.023226073011755943
1706236383397251973,0.13687349855899814,9.767448425292969,-1.0329930782318115,-0.027811067178845406,0.009150302968919277,-0.022031087428331375
1706236383407262751,0.1470632553100586,9.773545265197756,-1.0393620729446413,-0.027422012761235237,0.010818549431860447,-0.02088266611099243
1706236383417360417,0.14875699579715732,9.762393951416016,-1.0357048511505127,-0.026552889496088028,0.012998215854167938,-0.019521545618772507
1706236383426692195,0.15346935391426086,9.762069702148438,-1.0363749265670779,-0.024883853271603584,0.015119003131985664,-0.018198631703853607
1706236383447129140,0.1275061219930649,9.781983375549318,-1.0333646535873415,-0.01987963356077671,0.017131147906184196,-0.01691521145403385
1706236383460004325,0.1341473311185837,9.763072013854982,-1.0369477272033691,-0.0184783972799778,0.01728685200214386,-0.017342010512948036
1706236383466868640,0.1326352804899216,9.780303955078125,-1.0346910953521729,-0.019194554537534714,0.017666006460785866,-0.018165525048971176
1706236383476913028,0.12735532224178317,9.765422821044922,-1.026681900024414,-0.021939335390925407,0.018470102921128273,-0.018767481669783592
1706236383497315769,0.14609211683273315,9.765769958496094,-1.023775935173035,-0.029241884127259254,0.020500272512435913,-0.017589468508958817
1706236383506705306,0.15247781574726108,9.775246620178224,-1.031452775001526,-0.031050311401486397,0.0211853738874197,-0.015853457152843475
1706236383516880454,0.1653423011302948,9.766116142272951,-1.030694365501404,-0.030192533507943153,0.021417733281850815,-0.0137977609410882
1706236383527687603,0.16068142652511597,9.774578094482422,-1.0352171659469607,-0.026419982314109802,0.021179262548685074,-0.011881513521075249
1706236383537033380,0.16003412008285522,9.756344795227053,-1.0359591245651247,-0.020304126664996147,0.020544221624732018,-0.010609564371407032
1706236383547157288,0.16138043999671936,9.758373260498047,-1.0434745550155642,-0.013160486705601215,0.019480392336845398,-0.010390952229499817
1706236383557347362,0.1445209234952927,9.760055541992188,-1.041297435760498,-0.006669482681900263,0.01777278259396553,-0.011420038528740406
1706236383567391547,0.13973462581634521,9.764437675476076,-1.0320672988891602,-0.002420423086732626,0.015364488586783409,-0.013549060560762882
1706236383576767010,0.1498837321996689,9.760065078735352,-1.0354634523391726,-0.0014927241718396544,0.01266974862664938,-0.016144143417477608
1706236383586810399,0.1509114354848862,9.762777328491211,-1.034317970275879,-0.0038761228788644075,0.010353473015129566,-0.01828007400035858
1706236383597415065,0.16479942202568054,9.767834663391115,-1.0427225828170779,-0.008198336698114872,0.008923500776290894,-0.019316906109452248
1706236383607312288,0.1668805480003357,9.766164779663086,-1.0394793748855593,-0.012261946685612202,0.008609021082520485,-0.019303569570183754
1706236383657178769,0.15263272821903232,9.773259162902834,-1.0287222862243652,0.005350612569600344,0.011610186658799648,-0.01827324368059635
1706236383697387621,0.14003874361515048,9.764110565185547,-1.0179752111434939,-0.0004572694015223533,0.008678104728460312,-0.011346033774316311
1706236383747580695,0.15590505301952365,9.75264644622803,-1.0169852972030642,-0.014230947010219097,0.018884457647800446,-0.005185229238122702
1706236383787138973,0.1401440650224686,9.761425971984865,-1.0208673477172852,-0.010614356957376003,0.01238305028527975,-0.006824312265962362
1706236383797201917,0.14126738905906677,9.76409912109375,-1.0119142532348633,-0.013374116271734238,0.008487291634082794,-0.0050187064334750175
1706236383807281436,0.14279338717460632,9.758032798767092,-1.01149582862854,-0.017166756093502045,0.005812394432723522,-0.003016076749190688
1706236383817112732,0.13160425424575806,9.758360862731935,-1.0084235668182373,-0.020907524973154068,0.004854094237089157,-0.0008232409018091857
1706236383827017343,0.13364359736442566,9.766487121582031,-1.016761064529419,-0.023817889392375946,0.005366796627640724,0.00161079247482121
1706236383837062454,0.13625097274780273,9.762065887451172,-1.005493402481079,-0.025777865201234818,0.006748825311660767,0.004111504647880793
1706236383847108713,0.12102182954549791,9.760000228881836,-0.9978246092796327,-0.027094781398773193,0.008444712497293949,0.006416507065296173
1706236383861460213,0.1204442009329796,9.752953529357912,-1.0083417892456055,-0.028284214437007904,0.009941997937858105,0.008525152690708637
1706236383867356195,0.11631032824516296,9.771844863891602,-1.0005182027816775,-0.029988791793584824,0.010776330716907978,0.010603178292512894
1706236383877434213,0.12375855445861816,9.75800895690918,-1.0077950954437256,-0.03263898938894272,0.010850857943296432,0.012623912654817104
1706236383891685732,0.11707207560539246,9.757016181945803,-1.0102722644805908,-0.036074791103601456,0.010487272404134274,0.014303678646683693
1706236383907433102,0.10392826795578003,9.755620956420898,-1.0006595849990847,-0.03971772640943527,0.009956849738955498,0.01529262401163578
1706236383912203287,0.11473484337329865,9.775206565856935,-1.0053913593292236,-0.04314623773097992,0.009326573461294174,0.015479089692234993
1706236383928670843,0.12761130928993225,9.758334159851076,-0.9976756572723389,-0.04848615080118179,0.008789677172899246,0.014501399360597134
1706236383937605917,0.12978945672512057,9.755308151245117,-1.0119525194168093,-0.04931290075182915,0.009152206592261791,0.013940270058810711
1706236383946739917,0.13451902568340304,9.749567031860352,-1.0064911842346191,-0.048129260540008545,0.00938187725841999,0.013575175777077675
1706236383962870806,0.14285005629062655,9.750892639160156,-0.9990535974502563,-0.0449235662817955,0.008894641883671284,0.01340192835777998
1706236383967791436,0.14590959250926974,9.758674621582031,-1.000237226486206,-0.040129609405994415,0.007444356102496386,0.013441466726362705
1706236383977705713,0.1449355334043503,9.767114639282227,-0.9998414516448975,-0.03438767045736313,0.005413510836660862,0.013887012377381325
1706236383996755047,0.1320970058441162,9.77047634124756,-1.001903772354126,-0.023294366896152496,0.003193575656041503,0.01614420674741268
1706236384007009454,0.1279454976320267,9.764037132263185,-0.9867970943450928,-0.01985190063714981,0.004093016032129526,0.017400579527020454
1706236384017024510,0.11856284737586975,9.76539421081543,-0.9981954693794252,-0.018993718549609184,0.00619166623800993,0.01856376603245735
1706236384031911287,0.12177433818578721,9.782271385192873,-0.9992468357086182,-0.02108657918870449,0.009025691077113152,0.019830120727419853
1706236384037359361,0.13228532671928406,9.765731811523438,-0.9990561008453369,-0.025664033368229866,0.012174563482403755,0.021178388968110085
1706236384048282010,0.11772459000349046,9.760659217834474,-0.9979773163795472,-0.031383007764816284,0.015262803062796593,0.022265523672103882
1706236384057860769,0.14077875018119812,9.762024879455568,-1.0058751106262207,-0.03655889630317688,0.017651855945587158,0.02275220863521099
1706236384068000269,0.13437214493751526,9.773160934448242,-1.0099506378173828,-0.03981427848339081,0.018652059137821198,0.022432249039411545
1706236384077645713,0.13558486104011536,9.768436431884766,-1.0000391006469727,-0.04040561988949776,0.018214795738458633,0.021204138174653053
1706236384087840010,0.13503557443618774,9.755613327026367,-1.0184917449951172,-0.03845116123557091,0.016976404935121536,0.019181152805685997
1706236384096733139,0.14694549143314364,9.763709068298342,-1.01179838180542,-0.03484562039375305,0.015537401661276817,0.016647206619381905
1706236384107479084,0.15096773207187655,9.750575065612795,-1.0112972259521484,-0.030612681061029434,0.014028938487172127,0.013857915997505188
1706236384117098787,0.14234004914760592,9.771117210388185,-1.0170627832412722,-0.026377765461802483,0.012370044365525246,0.011076059192419052
1706236384128431250,0.14394126832485202,9.74751377105713,-1.026141881942749,-0.02251679077744484,0.01064094714820385,0.008544988930225372
1706236384137119936,0.14907759428024292,9.74818515777588,-1.0115275382995605,-0.019437959417700768,0.008989178575575352,0.00628818292170763
1706236384148132695,0.12931172549724582,9.759359359741211,-1.0270476341247559,-0.017500607296824455,0.007326164748519659,0.004221746232360601
1706236384157130991,0.13361759483814242,9.759966850280763,-1.0061749219894411,-0.016978604719042778,0.005576642695814371,0.002420560223981738
1706236384167793880,0.12484418600797655,9.753246307373047,-1.0160814523696902,-0.018125593662261963,0.004063092637807131,0.0011724005453288555
1706236384177274750,0.1123541370034218,9.759647369384766,-1.0173624753952029,-0.021046526730060577,0.003218321828171611,0.0008041139226406813
1706236384187865232,0.1258246898651123,9.768790245056154,-1.011386275291443,-0.025568341836333275,0.0032241479493677616,0.001352510298602283
1706236384197724121,0.13344961404800415,9.764735221862795,-1.0149435997009277,-0.031044673174619675,0.0041396766901016235,0.0024958779104053974
1706236384206954324,0.12717859447002414,9.761357307434084,-1.0125410556793213,-0.03619971126317978,0.005949414800852537,0.003824997926130891
1706236384217747824,0.12550733983516696,9.759676933288576,-1.0267707109451296,-0.03967283293604851,0.008300172165036201,0.0049598985351622105
1706236384227039287,0.13441042602062228,9.75325679779053,-1.0163713693618777,-0.04086083173751831,0.010451775044202805,0.005481906700879335
1706236384237717898,0.14337366819381714,9.75326919555664,-1.024881720542908,-0.03996729105710983,0.01159029733389616,0.005057130474597216
1706236384255716917,0.1454612910747528,9.75767707824707,-1.015115737915039,-0.037419818341732025,0.01123635470867157,0.003711490426212549
1706236384259777658,0.14945414662361145,9.771512031555178,-1.0226732492446902,-0.03357058763504028,0.009612059220671654,0.001881479867734015
1706236384277360658,0.16331879794597629,9.75833511352539,-1.019207239151001,-0.023490894585847855,0.006267460063099861,-0.0012797955423593521
1706236384287991824,0.1588050127029419,9.762395858764648,-1.0317488908767702,-0.018002673983573914,0.005770535208284855,-0.0023151831701397896
1706236384297643676,0.15341892838478088,9.774526596069336,-1.0209149122238161,-0.012707927264273167,0.0060269953683018684,-0.0031420711893588305
1706236384307424084,0.13834695518016818,9.771504402160646,-1.0244320631027224,-0.008306778036057949,0.007088825106620789,-0.0038955898489803076
1706236384324431954,0.13881547749042514,9.761689186096193,-1.0215680599212646,-0.005833845119923353,0.009106243029236794,-0.0045447503216564655
1706236384326900213,0.14249157905578613,9.76878070831299,-1.0277146100997927,-0.006137812975794077,0.01180407777428627,-0.0049450211226940155
1706236384339362287,0.14542604982852939,9.764396667480469,-1.025370001792908,-0.009148970246315002,0.014431959949433804,-0.005071091931313276
1706236384347951176,0.1390568166971207,9.769131660461428,-1.023830056190491,-0.013728499412536621,0.016284262761473656,-0.005073992535471916
1706236384360546232,0.15673427283763888,9.75597667694092,-1.0325132608413699,-0.018275417387485504,0.017050225287675858,-0.005138755310326815
1706236384367648232,0.15345022082328796,9.764769554138185,-1.0404628515243532,-0.021355943754315376,0.016720226034522057,-0.005489205475896597
1706236384377151250,0.1595611870288849,9.764069557189943,-1.0305078029632568,-0.02203037217259407,0.015482750721275806,-0.006464874837547541
1706236384387206750,0.15558509528636935,9.766794204711914,-1.0363544225692751,-0.02012341469526291,0.013798043131828308,-0.008259899914264679
1706236384397373565,0.14040656387805941,9.770843505859375,-1.0400216579437256,-0.01639232225716114,0.012336112558841705,-0.010650675743818283
1706236384407511380,0.13959170877933505,9.759335517883303,-1.0331412553787234,-0.012408042326569557,0.01165755745023489,-0.01317837368696928
1706236384417587917,0.144015371799469,9.760351181030273,-1.0225523710250857,-0.009944354183971882,0.011836917139589787,-0.015332985669374466
1706236384427815009,0.14178766310215,9.76406764984131,-1.0242087841033936,-0.01000952161848545,0.012401615269482136,-0.016477884724736214
1706236384437081454,0.14645187556743625,9.760345458984375,-1.0199254751205447,-0.012343318201601505,0.012763548642396927,-0.01601259596645832
1706236384447307121,0.15090972185134888,9.751570701599123,-1.0253839492797852,-0.01574222557246685,0.0125882588326931,-0.013813655823469162
1706236384461506269,0.1453256905078888,9.747516632080078,-1.0161499977111816,-0.018753530457615852,0.011677342467010021,-0.010401345789432526
1706236384467275417,0.14676952362060547,9.753978729248047,-1.0225440263748171,-0.020365478470921516,0.009845489636063576,-0.006634893361479044
1706236384477439065,0.1539265513420105,9.757687568664553,-1.0206105709075928,-0.020355014130473137,0.007198005449026823,-0.0033057646360248327
1706236384507299806,0.15755234658718112,9.769857406616211,-1.0272431373596191,-0.014958973042666912,0.0026240868028253317,-0.0003654008323792368
1706236384527186028,0.1592528223991394,9.758724212646484,-1.0330351591110232,-0.012070982716977596,0.008626684546470642,-0.005045529454946518
1706236384536959065,0.14406923949718478,9.766496658325195,-1.0406858921051025,-0.011198758147656918,0.012833626009523869,-0.008083611726760864
1706236384547005972,0.14541469514369967,9.76714611053467,-1.0217460393905642,-0.010631836019456387,0.01611544005572796,-0.010831666179001331
1706236384557316417,0.15809661149978638,9.763760566711428,-1.017529368400574,-0.010585987009108067,0.01772044040262699,-0.012824290432035923
1706236384566895565,0.16118711233139038,9.747919082641602,-1.0191123485565186,-0.011049138382077217,0.017612086609005928,-0.01340410765260458
1706236384577639676,0.15361307561397555,9.76240348815918,-0.9984085559844971,-0.011475296691060066,0.01603051833808422,-0.011976116336882114
1706236384587885991,0.1582481563091278,9.75298595428467,-1.0026135444641113,-0.011254352517426014,0.013324826024472713,-0.00833123829215765
1706236384597460639,0.1341221779584885,9.764461517333984,-1.0160491466522217,-0.01036712434142828,0.010129225440323353,-0.0027940208092331886
1706236384617024732,0.13909767568111422,9.770187377929688,-1.0073016881942751,-0.009861243888735771,0.005601209122687578,0.009337703697383404
1706236384626844954,0.1529524326324463,9.767154693603516,-1.0080196857452393,-0.011755897663533688,0.005492077674716711,0.013384496793150902
1706236384636973343,0.15134648978710177,9.767855644226076,-1.017104506492615,-0.014653719961643219,0.006987240631133318,0.01534852385520935
1706236384647518491,0.15679265558719638,9.759733200073242,-1.0114980936050417,-0.017252521589398384,0.009593917056918144,0.015307925641536713
1706236384658981676,0.16005733609199524,9.758365631103516,-0.992239534854889,-0.01832536607980728,0.012363985180854797,0.013756342232227325
1706236384666907583,0.17017197608947754,9.767149925231935,-0.9969861507415771,-0.017249811440706253,0.014272993430495262,0.011819138191640377
1706236384687588083,0.17792655527591708,9.769857406616211,-0.9813270568847656,-0.009122325107455254,0.014488075859844685,0.0123018529266119
1706236384696780750,0.17395532131195068,9.761397361755373,-0.9783546328544618,-0.003265474457293749,0.013999909162521362,0.016025857999920845
1706236384706836731,0.1606648564338684,9.77254390716553,-0.9856585264205933,0.002582385903224349,0.013906902633607388,0.021637968719005585
1706236384727824843,0.1466427743434906,9.774925231933594,-0.9880805611610414,0.009305719286203384,0.015170103870332241,0.0338251069188118
1706236384737021046,0.14514355361461642,9.774227142333984,-0.9773119091987611,0.008017048239707947,0.016546225175261497,0.03793906047940254
1706236384748345380,0.1358572691679001,9.77489757537842,-0.9745713472366333,0.0034193391911685467,0.018326319754123688,0.04001214727759361
1706236384758042343,0.1729075461626053,9.775614738464357,-0.9980887174606323,-0.0033617205917835236,0.020238365978002548,0.04043181240558624
1706236384767180028,0.18571415543556213,9.77322006225586,-0.9937223196029663,-0.010097326710820198,0.02195436879992485,0.03969287499785423
1706236384777228880,0.18016318976879123,9.778264999389648,-0.976791799068451,-0.013867332600057125,0.023224007338285446,0.03797644376754761
1706236384787263565,0.20324335992336276,9.75330448150635,-0.9830923676490785,-0.012459427118301392,0.023869331926107407,0.03565548360347748
