Timestamp,IMU_Raw_x,IMU_Raw_y,IMU_Raw_z,IMU_Linear_Acc_X,IMU_Linear_Acc_Y,IMU_Linear_Acc_Z
1706235922180598303,0.11530795693397522,9.771038055419922,-1.012472748756409,0.02162935771048069,2.449479579925537,-0.2495477944612503
1706235922189544785,0.13030439615249634,9.765291213989258,-1.0055158138275146,0.021742265671491623,2.4492886066436768,-0.25023484230041504
1706235922200554470,0.12401149421930314,9.760917663574219,-1.0125166177749636,0.022525984793901443,2.4490044116973877,-0.250701367855072
1706235922210424952,0.12148506939411163,9.760548591613771,-1.01035475730896,0.024037405848503113,2.4485177993774414,-0.2509256899356842
1706235922220248674,0.13494898378849032,9.765291213989258,-1.0120854377746582,0.026160620152950287,2.447636127471924,-0.2510799169540405
1706235922230118822,0.1278863698244095,9.761227607727053,-0.9991880655288696,0.028603127226233482,2.4463582038879395,-0.2512996792793274
1706235922240012044,0.13315548002719882,9.768336296081545,-1.0160856246948242,0.031124521046876907,2.4449751377105713,-0.25148752331733704
1706235922249887692,0.1350003927946091,9.75448226928711,-1.0084190368652344,0.03355690836906433,2.4438588619232178,-0.2514834403991699
1706235922259766729,0.1390959620475769,9.766319274902344,-1.0174243450164795,0.035800736397504807,2.443171501159668,-0.25138601660728455
1706235922269643470,0.12717588245868686,9.778449058532717,-1.0007598400115967,0.0378330834209919,2.442910671234131,-0.25145694613456726
1706235922279585118,0.12937854230403903,9.767006874084474,-1.0113892555236816,0.03950963541865349,2.4432528018951416,-0.25173482298851013
1706235922290487192,0.1281895637512207,9.766302108764648,-1.0116455554962158,0.04046979919075966,2.4444401264190674,-0.25198793411254883
1706235922300435877,0.13247703015804294,9.769032478332521,-1.0124595165252686,0.04043961316347122,2.446274995803833,-0.2520762085914612
1706235922310268989,0.1414206773042679,9.767325401306154,-1.0014424324035645,0.03961014002561569,2.4481470584869385,-0.25207406282424927
1706235922320176118,0.15095162391662598,9.772044181823732,-1.012902021408081,0.03874339535832405,2.449524402618408,-0.25200217962265015
1706235922330047489,0.13393990695476535,9.759553909301758,-1.01477324962616,0.038835007697343826,2.4502005577087402,-0.25181058049201965
1706235922339944044,0.14279894530773166,9.758901596069336,-1.0146533250808718,0.040372174233198166,2.450118064880371,-0.2516627609729767
1706235922349847674,0.1390226185321808,9.765297889709474,-1.0130846500396729,0.0429312102496624,2.449199676513672,-0.25189271569252014
1706235922359755748,0.14948245882987976,9.77376461029053,-1.023806095123291,0.045648641884326935,2.447596311569214,-0.2527003586292267
1706235922369627211,0.1437200903892517,9.76835346221924,-1.0129430294036865,0.04792371019721031,2.4459586143493652,-0.25407785177230835
1706235922379605951,0.14840960502624512,9.767004013061523,-1.0150744915008545,0.04962135851383209,2.445089101791382,-0.2558232843875885
1706235922390511174,0.13674691319465637,9.774078369140625,-1.013348460197449,0.05081701651215553,2.445345401763916,-0.25749799609184265
1706235922400407711,0.1422935426235199,9.774401664733888,-1.0043327808380127,0.05148874595761299,2.446573257446289,-0.2585557997226715
1706235922410303377,0.142309308052063,9.763272285461428,-1.015186071395874,0.05151005834341049,2.4483847618103027,-0.2585868835449219
1706235922420174692,0.140362948179245,9.773744583129883,-1.0041114091873171,0.05089811980724335,2.4502439498901367,-0.2575240433216095
1706235922430074544,0.13144376873970032,9.764294624328615,-1.0119047164916992,0.0498538613319397,2.4515798091888428,-0.2556912302970886
1706235922439930414,0.1312810182571411,9.767657279968263,-1.0072101354599001,0.04848992079496384,2.4520463943481445,-0.25361543893814087
1706235922449862081,0.1364024728536606,9.765632629394531,-1.0007753372192383,0.04675097391009331,2.451612949371338,-0.2517538070678711
1706235922459735451,0.13384220004081726,9.767339706420898,-1.0128278732299805,0.044700246304273605,2.450500965118408,-0.2503071427345276
1706235922469611359,0.14109498262405396,9.764303207397461,-1.0139833688735964,0.042709749191999435,2.449090003967285,-0.24934019148349762
1706235922480594470,0.1298518627882004,9.773399353027344,-1.0071662664413454,0.04126982390880585,2.447787046432495,-0.24901346862316132
1706235922490478266,0.12024520337581635,9.765648841857912,-1.0168632268905642,0.04054883494973183,2.446946382522583,-0.2494502067565918
1706235922500342600,0.1291695237159729,9.770051956176758,-1.0140583515167236,0.04011720046401024,2.44677472114563,-0.2505490183830261
1706235922510242637,0.11950352042913438,9.767662048339844,-1.006392240524292,0.039282675832509995,2.4472129344940186,-0.2520422637462616
1706235922520220285,0.12678627669811252,9.767660140991211,-1.0054125785827637,0.037680767476558685,2.4479820728302,-0.25348013639450073
1706235922530119063,0.1399857997894287,9.757189750671388,-1.002871632575989,0.03554627299308777,2.4486947059631348,-0.2542484402656555
1706235922549868248,0.12058400362730028,9.757189750671388,-1.008171558380127,0.03277111425995827,2.4482507705688477,-0.2523189187049866
1706235922559902118,0.11933563649654388,9.771035194396974,-1.0162928104400635,0.03288590908050537,2.446763277053833,-0.25014564394950867
1706235922569730044,0.12265679985284807,9.770022392272951,-1.0087863206863406,0.03322846069931984,2.444979667663574,-0.24830681085586548
1706235922579645525,0.13115200400352478,9.756853103637695,-1.0089457035064697,0.03308167681097984,2.443694829940796,-0.24761496484279633
1706235922589571081,0.12056379020214081,9.752785682678224,-1.0028510093688965,0.032382532954216,2.4432640075683594,-0.24817025661468506
1706235922600598174,0.12389916181564331,9.762951850891115,-1.014477252960205,0.03152105584740639,2.4432504177093506,-0.24939222633838654
1706235922610563340,0.1258983761072159,9.773068428039553,-1.0097903013229372,0.030826080590486526,2.4430627822875977,-0.2506098747253418
1706235922620449729,0.11808938533067705,9.758904457092287,-1.0178059339523318,0.030397018417716026,2.4427146911621094,-0.25155067443847656
1706235922630302007,0.12510435283184054,9.765662193298342,-1.0105940103530886,0.030165256932377815,2.4426193237304688,-0.2523261308670044
1706235922640157470,0.12133479863405229,9.758228302001953,-1.0109652280807497,0.029983211308717728,2.442932605743408,-0.25310218334198
1706235922650022729,0.12140578776597978,9.766317367553711,-1.0090956687927246,0.02975546009838581,2.443429708480835,-0.2538321316242218
1706235922659885581,0.12067385017871857,9.771726608276367,-1.0106567144393923,0.02945944108068943,2.4438769817352295,-0.2542892396450043
1706235922669744803,0.119327150285244,9.761590003967287,-0.9998100996017456,0.029078995808959007,2.4443132877349854,-0.25425252318382263
1706235922679687803,0.12404426187276842,9.767313957214357,-1.0054779052734375,0.028615189716219902,2.4448864459991455,-0.2535610795021057
1706235922689568285,0.11897319555282593,9.761588096618654,-1.0046370029449463,0.02814081497490406,2.4455466270446777,-0.2521654963493347
1706235922700610674,0.11049380898475647,9.752815246582031,-1.00175416469574,0.02771250158548355,2.4460039138793945,-0.2502664029598236
1706235922710513136,0.11588659882545471,9.757857322692873,-1.0061588287353516,0.027177562937140465,2.445833921432495,-0.24827173352241516
1706235922720397525,0.12236521393060686,9.770380020141602,-1.0113468170166016,0.026302509009838104,2.4447824954986572,-0.2466352880001068
1706235922730270396,0.11597969383001329,9.756527900695803,-1.0079950094223025,0.025166278705000877,2.443166732788086,-0.24578364193439484
1706235922740168692,0.11831863969564439,9.766639709472656,-1.0054097175598145,0.024153657257556915,2.4417052268981934,-0.2459486573934555
1706235922750047173,0.11692488193511963,9.755838394165039,-1.0064756870269775,0.023565420880913734,2.4409122467041016,-0.2469377964735031
1706235922759946766,0.11292774975299835,9.774070739746094,-1.0056514739990234,0.02340996079146862,2.440873384475708,-0.24821028113365173
1706235922769834322,0.11514483392238617,9.767325401306154,-1.008024573326111,0.023455245420336723,2.441511869430542,-0.2492305487394333
1706235922779700396,0.12415891140699388,9.7504358291626,-0.9945619106292725,0.023446591570973396,2.4427099227905273,-0.24968095123767853
1706235922789602266,0.11391968280076982,9.759214401245117,-1.0046635866165163,0.023372430354356766,2.4439985752105713,-0.2493908554315567
1706235922800610303,0.11326333135366441,9.758556365966797,-1.002838730812073,0.02337728440761566,2.444596290588379,-0.24833713471889496
1706235922810451192,0.11663100123405457,9.76258945465088,-1.0074552297592165,0.023434624075889587,2.4440767765045166,-0.24682652950286865
1706235922820326359,0.10816904157400133,9.770337104797365,-0.9983209967613221,0.023333722725510597,2.4427812099456787,-0.2454172968864441
1706235922830237785,0.120994433760643,9.765619277954102,-1.0028109550476074,0.02291497029364109,2.441575765609741,-0.24450919032096863
1706235922840074173,0.11220220476388933,9.766993522644045,-1.0035027265548708,0.022237738594412804,2.441272020339966,-0.2441284954547882
1706235922849903136,0.11407529562711717,9.764972686767578,-1.0079071521759033,0.021548422053456306,2.4421215057373047,-0.24413512647151947
1706235922859785266,0.11263835430145264,9.766613006591797,-0.9933430552482606,0.021040834486484528,2.4437639713287354,-0.24441544711589813
1706235922869703285,0.12739263474941256,9.764966011047365,-1.002958416938782,0.020787259563803673,2.4455645084381104,-0.24476076662540436
1706235922879617599,0.11699318140745164,9.764946937561037,-1.005110740661621,0.020947543904185295,2.4469661712646484,-0.24487140774726868
1706235922890578710,0.12283436954021454,9.772375106811523,-0.9989599585533143,0.02174382284283638,2.447704315185547,-0.24465928971767426
1706235922900466803,0.12234929949045183,9.763277053833008,-1.009455919265747,0.02317453920841217,2.4478752613067627,-0.24432183802127838
1706235922910401136,0.11953469365835191,9.766307830810547,-1.0060752630233767,0.024955255910754204,2.4477598667144775,-0.2441612035036087
1706235922920209803,0.11766494810581207,9.771032333374023,-1.0074223279953005,0.026658974587917328,2.4475674629211426,-0.24445374310016632
1706235922930075192,0.12056080251932146,9.777091026306154,-1.0021408796310427,0.027850359678268433,2.44748854637146,-0.245278000831604
1706235922939944655,0.11686258018016815,9.776069641113281,-0.9997897148132324,0.02826821245253086,2.44785737991333,-0.24635910987854004
1706235922949858544,0.12658150494098666,9.762927055358888,-0.9986720085144043,0.027974337339401245,2.448929786682129,-0.24715816974639893
1706235922959720673,0.12419267743825914,9.756516456604006,-0.9993359446525575,0.027364201843738556,2.4503960609436035,-0.24718253314495087
1706235922969589618,0.12048408389091492,9.774072647094727,-1.0056988000869753,0.02697589062154293,2.451383113861084,-0.2463172972202301
1706235922980604451,0.11992166936397552,9.758527755737305,-1.0018078088760378,0.027105677872896194,2.4512102603912354,-0.24494123458862305
1706235922990472321,0.1323288828134537,9.767997741699219,-1.0048121213912966,0.027665775269269943,2.4499287605285645,-0.24368976056575775
1706235923000395766,0.12751567363739014,9.766319274902344,-1.0029497146606445,0.028514232486486435,2.448091506958008,-0.24305380880832672
1706235923010251766,0.1321682631969452,9.770706176757812,-1.006098985671997,0.0296982079744339,2.446383476257324,-0.2431754767894745
1706235923020110747,0.13133108615875244,9.754153251647951,-1.0014377832412722,0.03128986060619354,2.4453325271606445,-0.24389690160751343
1706235923030018525,0.1330547332763672,9.76831912994385,-1.0060201883316042,0.033205296844244,2.444986581802368,-0.24489045143127441
1706235923039912729,0.1336776614189148,9.77610492706299,-1.0026942491531374,0.03522918373346329,2.445049285888672,-0.24581202864646912
1706235923049784025,0.13839250802993774,9.770026206970217,-0.9976621866226196,0.03714028373360634,2.4454433917999268,-0.24640415608882904
1706235923059650396,0.12812118232250216,9.765642166137695,-1.005375623703003,0.038795989006757736,2.4463443756103516,-0.24649713933467865
1706235923070643210,0.1312319040298462,9.767324447631836,-1.009896993637085,0.04004615917801857,2.447664260864258,-0.2461160123348236
1706235923080500933,0.138620525598526,9.75820827484131,-1.009353041648865,0.04070586338639259,2.4488930702209473,-0.24564433097839355
1706235923090365229,0.12778972089290622,9.77540683746338,-1.0062938928604128,0.04076917842030525,2.4494681358337402,-0.24562586843967438
1706235923100237173,0.14157721400260925,9.770350456237795,-1.0036723613739014,0.0404827818274498,2.449265956878662,-0.24629129469394684
1706235923110125581,0.13356658816337585,9.757535934448242,-1.010984778404236,0.04019065946340561,2.4486751556396484,-0.24739211797714233
1706235923119957081,0.13500726222991943,9.762925148010256,-1.008026719093323,0.0401824489235878,2.448040008544922,-0.2485189586877823
1706235923129792840,0.1264703869819641,9.76629638671875,-1.0124149322509766,0.040493592619895935,2.4473154544830322,-0.24945741891860962
1706235923139732210,0.13798598945140841,9.774073600769045,-1.006522059440613,0.04083988070487976,2.446470022201538,-0.2502090036869049
1706235923149642414,0.13199010491371155,9.759885787963867,-1.0137726068496706,0.04092184826731682,2.4458060264587402,-0.2508269250392914
1706235923160726562,0.12528803944587708,9.766335487365724,-1.0154384374618532,0.04067195579409599,2.4456169605255127,-0.2513784170150757
1706235923170565470,0.1226715072989464,9.764954566955568,-1.0061242580413818,0.04006260633468628,2.4458229541778564,-0.2519766092300415
1706235923180514340,0.12821650505065918,9.759550094604492,-1.0086690187454226,0.0389406643807888,2.4461050033569336,-0.252621054649353
1706235923190392951,0.13357868790626526,9.760239601135256,-1.0112576484680176,0.03731219470500946,2.4461357593536377,-0.2530887722969055
1706235923200288636,0.12442376464605333,9.765640258789062,-1.012216567993164,0.03559083491563797,2.445697069168091,-0.25318995118141174
1706235923210171025,0.1353031545877457,9.77610969543457,-1.0111970901489258,0.0343366339802742,2.444908380508423,-0.2530076503753662
1706235923220088099,0.1340702474117279,9.76228141784668,-1.01863431930542,0.03390995040535927,2.4443132877349854,-0.25282028317451477
1706235923229954544,0.1294403523206711,9.756509780883789,-1.0134276151657107,0.034408800303936005,2.44437575340271,-0.25293707847595215
1706235923239817692,0.12844249606132507,9.761575698852539,-1.0089898109436035,0.03561389446258545,2.444892168045044,-0.2535145878791809
1706235923249710581,0.13708645105361938,9.75721073150635,-1.0105377435684206,0.03701716288924217,2.4451844692230225,-0.2543589472770691
1706235923259632469,0.13072267174720764,9.767663002014162,-1.0058014392852783,0.03817166015505791,2.4447946548461914,-0.25499555468559265
1706235923270696136,0.12586364150047302,9.766985893249513,-0.9992281198501587,0.038899973034858704,2.44386887550354,-0.2549484074115753
1706235923280493914,0.12242230772972107,9.770696640014648,-1.010470509529114,0.039075806736946106,2.4430370330810547,-0.2539445161819458
1706235923290381432,0.12847068905830383,9.762933731079102,-1.0078479051589968,0.03850283473730087,2.4429373741149902,-0.25211822986602783
1706235923300276321,0.10986965894699097,9.769328117370607,-1.003094792366028,0.03709297627210617,2.4437482357025146,-0.2500470280647278
1706235923310154618,0.12735199928283691,9.769688606262209,-1.0047301054000857,0.03493775054812431,2.4451653957366943,-0.24834075570106506
1706235923320098914,0.11876723915338518,9.76933002471924,-1.003826975822449,0.032313697040081024,2.44675612449646,-0.24724575877189636
1706235923329965469,0.13199126720428467,9.761240959167482,-1.0096577405929568,0.02977798692882061,2.4481706619262695,-0.246710866689682
1706235923339832969,0.1194145753979683,9.764287948608398,-1.005024313926697,0.028026392683386803,2.4490697383880615,-0.2466384470462799
1706235923349692988,0.1257777661085129,9.75819492340088,-1.0058728456497195,0.02746938169002533,2.449129343032837,-0.2469433695077896
1706235923359659655,0.11506299674510956,9.76763916015625,-1.009289264678955,0.0279409047216177,2.448242425918579,-0.24748140573501587
1706235923369644562,0.13707321882247925,9.769001960754396,-0.998100996017456,0.028879599645733833,2.446718215942383,-0.248049795627594
1706235923380593655,0.12861280143260959,9.763275146484375,-1.0054100751876833,0.02988939918577671,2.4452223777770996,-0.24839900434017181
1706235923390465914,0.12876798212528232,9.766315460205078,-1.0101767778396609,0.03101019561290741,2.444354772567749,-0.24833175539970398
1706235923400361155,0.13147452473640442,9.765614509582521,-1.0094202756881716,0.03237513452768326,2.4442806243896484,-0.24796344339847565
1706235923410270506,0.12650161981582642,9.763609886169435,-1.002342700958252,0.033880624920129776,2.444781541824341,-0.24768446385860443
1706235923420166377,0.12771856784820557,9.763604164123537,-0.9993475079536439,0.03523273020982742,2.445476770401001,-0.24769361317157745
1706235923430030192,0.1156451404094696,9.775082588195803,-1.0063918828964236,0.036056678742170334,2.4460482597351074,-0.24776475131511688
1706235923439905210,0.12063980102539062,9.752471923828125,-1.0105023384094238,0.03595574200153351,2.4464058876037598,-0.2476157397031784
1706235923449772858,0.1183079704642296,9.763267517089844,-1.0074378252029421,0.034689031541347504,2.4465084075927734,-0.2473364919424057
1706235923459664840,0.127786785364151,9.756515502929688,-1.0137412548065186,0.03245493397116661,2.446139097213745,-0.24730466306209564
1706235923470635377,0.12543028593063354,9.764610290527344,-1.0062083005905154,0.02997370809316635,2.4451370239257812,-0.2478148192167282
1706235923480507266,0.11708024144172668,9.755834579467773,-1.0047737360000613,0.028114760294556618,2.443676233291626,-0.24882160127162933
1706235923490419692,0.12948766350746155,9.77005386352539,-1.0211874246597292,0.027334796264767647,2.4421799182891846,-0.2499857097864151
1706235923500288229,0.11875928938388824,9.752809524536133,-1.0080304145812988,0.02753622829914093,2.4410881996154785,-0.2510552406311035
1706235923510174451,0.12112586200237274,9.763609886169435,-1.0067002773284912,0.028313754126429558,2.4406111240386963,-0.2520127296447754
1706235923520041469,0.12281619757413866,9.759888648986818,-1.0061650276184082,0.029158148914575577,2.440626382827759,-0.25274646282196045
1706235923529882321,0.13156603276729587,9.766300201416016,-1.0072972774505615,0.029714522883296013,2.4409024715423584,-0.25296124815940857
1706235923539857969,0.12192881852388383,9.772029876708984,-0.9987687468528749,0.030026420950889587,2.441392183303833,-0.25245779752731323
1706235923549758414,0.11547735333442688,9.764625549316406,-1.0114511251449587,0.030303098261356354,2.4422597885131836,-0.2512749135494232
1706235923559697654,0.12976254522800448,9.767993927001953,-1.0089280605316162,0.03050798922777176,2.443615436553955,-0.24973107874393463
1706235923570707284,0.11546903103590013,9.759558677673342,-1.0070134401321413,0.030454156920313835,2.4452364444732666,-0.24838891625404358
1706235923580567099,0.1298753470182419,9.765625,-1.0017938613891602,0.030122021213173866,2.446612596511841,-0.24769631028175354
1706235923590409229,0.1155931279063225,9.761248588562013,-1.0138946771621706,0.029663747176527977,2.447270631790161,-0.2476690709590912
1706235923600278488,0.12099283933639526,9.771387100219727,-1.0100060701370241,0.029211781919002533,2.447094440460205,-0.24809549748897552
1706235923610158191,0.14250399172306064,9.76966667175293,-0.9975472688674927,0.028864694759249687,2.446439027786255,-0.24879513680934906
1706235923620049525,0.12000095844268799,9.76529312133789,-1.0098919868469238,0.02892375737428665,2.445913791656494,-0.2494821697473526
1706235923629906377,0.13054464757442477,9.75787353515625,-1.0013551712036133,0.029750635847449303,2.4458816051483154,-0.24976572394371033
1706235923639792432,0.12467933446168901,9.752813339233398,-1.0033427476882937,0.03125685080885887,2.4460833072662354,-0.24944879114627838
1706235923649662729,0.12436962127685547,9.761245727539062,-1.01123046875,0.03289983794093132,2.445841073989868,-0.24864259362220764
1706235923660673395,0.1302800178527832,9.762252807617188,-1.000035881996155,0.034116216003894806,2.44472074508667,-0.24768656492233276
1706235923670555580,0.11593138426542283,9.765616416931154,-0.9959052205085756,0.03460376337170601,2.4429924488067627,-0.2468888759613037
1706235923680454858,0.11784622073173523,9.764968872070312,-1.0045558214187624,0.03426404297351837,2.441425085067749,-0.2462199330329895
1706235923690359932,0.11918959021568298,9.768011093139648,-1.0086510181427002,0.03304656222462654,2.440734386444092,-0.24551260471343994
1706235923700243617,0.13013562560081482,9.768984794616701,-1.0050231218338015,0.03111989051103592,2.44122576713562,-0.24490055441856384
1706235923710144580,0.1237483248114586,9.772743225097656,-1.0123889446258545,0.029109233990311623,2.4427883625030518,-0.2447621077299118
1706235923720015173,0.1270909607410431,9.770711898803711,-1.0029094219207764,0.027827749028801918,2.4450650215148926,-0.24534179270267487
1706235923729860395,0.1219046786427498,9.764289855957031,-1.007402300834656,0.02771233208477497,2.4475643634796143,-0.24652451276779175
1706235923739821117,0.12996922433376315,9.770682334899904,-0.9977519512176514,0.02860977314412594,2.4496986865997314,-0.2478446215391159
1706235923749766691,0.12167424708604814,9.765974044799805,-1.015966296195984,0.030027735978364944,2.4509754180908203,-0.248757466673851
1706235923760751117,0.1252269148826599,9.75923252105713,-1.0084758996963503,0.03143589571118355,2.4511985778808594,-0.24908149242401123
1706235923770684117,0.11905243992805481,9.763967514038086,-1.0047950744628906,0.03238878771662712,2.4504048824310303,-0.2491079717874527
1706235923780551432,0.12097372859716417,9.76191520690918,-1.008141279220581,0.03258732706308365,2.4487805366516113,-0.24916957318782806
1706235923790545451,0.12068777531385423,9.765627861022951,-0.9972518086433412,0.0319577232003212,2.4467270374298096,-0.24927373230457306
1706235923800385191,0.13049918413162231,9.774059295654297,-1.0035755634307861,0.03074299916625023,2.444852590560913,-0.24915531277656555
1706235923810379173,0.12876850366592407,9.763613700866701,-1.0033454895019531,0.02953242138028145,2.4438016414642334,-0.24854619801044464
1706235923820248710,0.13010217249393466,9.75484371185303,-1.0046722888946533,0.029034370556473732,2.443849563598633,-0.24746625125408173
1706235923830146099,0.1323717683553696,9.761945724487305,-1.0087205171585085,0.029666878283023834,2.4445457458496094,-0.24628034234046936
1706235923840058784,0.12808881700038913,9.767333030700685,-1.0111253261566162,0.031344641000032425,2.445075750350952,-0.2455032765865326
1706235923849928747,0.12477242946624756,9.759904861450195,-1.0026240348815918,0.03354249522089958,2.4450223445892334,-0.2455284148454666
1706235923859827969,0.11265534162521362,9.762252807617188,-1.0104719400405886,0.035432230681180954,2.4445130825042725,-0.24636565148830414
1706235923869725599,0.11756981164216997,9.763247489929201,-0.9973605871200562,0.03609731048345566,2.4438319206237793,-0.24760206043720245
1706235923879744025,0.12877881526947021,9.763967514038086,-1.011719346046448,0.03501754254102707,2.443213939666748,-0.2486574649810791
1706235923890667543,0.12203154712915422,9.763956069946289,-1.0046112537384033,0.03257741034030914,2.4428505897521973,-0.24914921820163727
1706235923900534265,0.12357223033905029,9.763259887695312,-1.0014218091964724,0.029879460111260414,2.442845106124878,-0.2490673065185547
1706235923910438062,0.12198791652917863,9.759572029113771,-1.008368968963623,0.027936451137065887,2.4431352615356445,-0.24859674274921417
1706235923920334080,0.13058830797672275,9.776430130004883,-1.006554365158081,0.02718367986381054,2.443561315536499,-0.2479572594165802
1706235923930201562,0.1284229010343552,9.757876396179201,-1.009862542152405,0.027614708989858627,2.444077968597412,-0.24743853509426117
1706235923940079154,0.12351398169994354,9.7636194229126,-1.0032464265823366,0.0289946049451828,2.4447057247161865,-0.24730628728866577
1706235923949951988,0.12747520208358765,9.764616012573242,-1.001758098602295,0.030857061967253685,2.445279121398926,-0.24756640195846558
1706235923959822747,0.12782116234302524,9.76494884490967,-1.0086140632629395,0.03260849043726921,2.4455606937408447,-0.2479294240474701
1706235923969718358,0.1359996199607849,9.757562637329102,-1.0103949308395388,0.03387898951768875,2.4454867839813232,-0.24813154339790344
1706235923980704025,0.139070063829422,9.757208824157717,-1.0085556507110596,0.03477778658270836,2.4450602531433105,-0.24823284149169922
1706235923990580376,0.13658092916011813,9.76363754272461,-1.0056475400924685,0.03577553108334541,2.4442310333251953,-0.24846644699573517
1706235924000469432,0.12389619648456573,9.764288902282717,-1.0040231943130495,0.03721079230308533,2.443099021911621,-0.248880997300148
1706235924010376913,0.13315057754516602,9.759215354919435,-1.0071943998336794,0.03883928805589676,2.442030906677246,-0.24926449358463287
1706235924020394136,0.1303667426109314,9.768665313720703,-1.0024863481521609,0.04002547636628151,2.4414138793945312,-0.2493678629398346
1706235924030227265,0.13810133934020996,9.764965057373047,-1.0020982027053835,0.040389299392700195,2.44144606590271,-0.24907246232032776
1706235924040149321,0.12959185242652893,9.769010543823242,-1.0106029510498047,0.040100134909152985,2.4421627521514893,-0.24841076135635376
1706235924050029006,0.1260128617286682,9.771383285522461,-1.0145312547683718,0.03955230861902237,2.4434759616851807,-0.247659832239151
1706235924059903025,0.12804767489433289,9.76765537261963,-1.0078796148300173,0.03891504928469658,2.4451980590820312,-0.24734041094779968
1706235924069826617,0.1307167410850525,9.758536338806154,-0.999773919582367,0.03812121972441673,2.447002410888672,-0.247787207365036
1706235924079728747,0.13312955200672152,9.764933586120607,-0.9975052475929261,0.037203188985586166,2.4483561515808105,-0.2486739158630371
1706235924090663395,0.1420430839061737,9.75990104675293,-1.0061925649642947,0.036484185606241226,2.4487335681915283,-0.2491990625858307
1706235924100530117,0.12782467901706698,9.768331527709961,-1.0021208524703982,0.03642157465219498,2.448009967803955,-0.24881646037101746
1706235924110421265,0.1272527575492859,9.760904312133789,-0.9986602067947388,0.037157829850912094,2.446572780609131,-0.24761945009231567
1706235924120328099,0.12413261085748674,9.75687026977539,-1.0032609701156618,0.038206975907087326,2.4450008869171143,-0.24605043232440948
1706235924130188580,0.13291607797145846,9.764626502990724,-1.0102156400680544,0.03879218176007271,2.443650960922241,-0.2445860654115677
1706235924140049932,0.13327398896217346,9.755861282348633,-1.0049858093261719,0.03854064270853996,2.4425978660583496,-0.24371188879013062
1706235924149889413,0.12415128201246263,9.758524894714357,-0.999780833721161,0.03771315887570381,2.441791534423828,-0.24374589323997498
1706235924159834191,0.13282212615013123,9.751459121704102,-1.0072262287139893,0.03678569197654724,2.4410831928253174,-0.24453943967819214
1706235924170779580,0.12645481526851657,9.766970634460451,-1.002798318862915,0.03604970499873161,2.440296173095703,-0.2455977201461792
1706235924180764858,0.1163616105914116,9.766300201416016,-0.9999690651893617,0.03553144633769989,2.4395182132720947,-0.24645951390266418
1706235924190577469,0.12489168345928192,9.780815124511719,-1.0000340938568115,0.03496875986456871,2.4392828941345215,-0.2468193769454956
1706235924200397413,0.11787512153387071,9.761916160583498,-1.002011775970459,0.03398983180522919,2.4402623176574707,-0.2465246617794037
1706235924210357006,0.12418136745691301,9.764952659606935,-1.0017061233520508,0.03248007223010063,2.442586898803711,-0.24566687643527985
1706235924220244339,0.13204547762870789,9.77035140991211,-1.0035396814346316,0.030744008719921112,2.4455411434173584,-0.2445821315050125
1706235924230105154,0.12671926617622375,9.753483772277834,-1.0040673017501833,0.029411302879452705,2.448054313659668,-0.2436860352754593
1706235924239993024,0.1351844519376755,9.75955104827881,-1.0121195316314697,0.0291153397411108,2.4492697715759277,-0.24332909286022186
1706235924249874617,0.1274627149105072,9.76192378997803,-1.006415843963623,0.03010396473109722,2.44877290725708,-0.24375061690807343
1706235924260853747,0.12543343007564547,9.769000053405763,-1.0075652599334717,0.032072514295578,2.4468367099761963,-0.24498115479946136
1706235924270779710,0.1276911199092865,9.768004417419435,-1.0074430704116824,0.03427280858159065,2.4444453716278076,-0.2467273771762848
1706235924280655284,0.13534849882125854,9.765297889709474,-1.003798246383667,0.03594295680522919,2.4427549839019775,-0.2484712302684784
1706235924290559506,0.11867491900920868,9.767677307128906,-1.0110104084014893,0.03675612434744835,2.442413568496704,-0.249736949801445
1706235924300456302,0.13985353708267212,9.766324043273928,-1.0044246912002566,0.036805782467126846,2.443331480026245,-0.2503170073032379
1706235924310325932,0.13182576000690463,9.769359588623047,-1.0111621618270876,0.036436934024095535,2.4449634552001953,-0.25031790137290955
1706235924320284524,0.12571786344051364,9.773045539855959,-1.0001327991485596,0.03613654151558876,2.44673228263855,-0.24999359250068665
1706235924330147524,0.12819120287895203,9.763269424438477,-1.0000135898590088,0.03616822138428688,2.4482767581939697,-0.24948707222938538
1706235924340082969,0.12545450031757358,9.757874488830568,-1.011909008026123,0.03634505346417427,2.4493367671966553,-0.2487635761499405
1706235924349948265,0.12856613099575046,9.755508422851562,-1.0054787397384646,0.03632026165723801,2.449521064758301,-0.24789389967918396
1706235924359925154,0.12789298593997958,9.765636444091797,-1.0088101625442507,0.03593786060810089,2.448478937149048,-0.2472146898508072
1706235924369765987,0.128040686249733,9.765636444091797,-1.0084900856018066,0.03530661016702652,2.446387529373169,-0.24705518782138824
1706235924380699413,0.12264405190944672,9.761911392211914,-1.0041143894195557,0.034640613943338394,2.444042205810547,-0.2474697083234787
1706235924390588469,0.1321241557598114,9.758873939514162,-1.0042394399642947,0.03407246619462967,2.442288398742676,-0.24820780754089355
1706235924400452506,0.12802411615848544,9.763257026672365,-1.0151885747909548,0.0336797870695591,2.441453218460083,-0.2488950490951538
1706235924410379876,0.1350710690021515,9.760244369506836,-1.0122448205947878,0.03360575810074806,2.4413607120513916,-0.24939732253551483
1706235924420246191,0.13047902286052707,9.764266014099123,-1.0008586645126345,0.034016646444797516,2.4416756629943848,-0.2498844861984253
1706235924430108654,0.1294931918382645,9.767664909362795,-1.0061085224151611,0.03493109717965126,2.4421606063842773,-0.2503953278064728
1706235924439974987,0.12557381391525269,9.764292716979982,-1.0108330249786377,0.036087967455387115,2.4427683353424072,-0.25067004561424255
1706235924449880617,0.12005469948053361,9.759552001953125,-1.0088456869125368,0.036974962800741196,2.443509340286255,-0.25055810809135437
1706235924459796969,0.12506006658077243,9.769700050354006,-1.0080176591873171,0.037050191313028336,2.444256067276001,-0.25024551153182983
1706235924470761969,0.11886666715145111,9.761917114257812,-1.0071132183074951,0.036051273345947266,2.444833517074585,-0.24999649822711945
1706235924480625080,0.12147801369428636,9.757865905761719,-1.0119129419326784,0.03414151445031166,2.445157527923584,-0.2499263733625412
1706235924490496876,0.12131392955780029,9.77002811431885,-1.0098191499710085,0.03178121894598007,2.4451658725738525,-0.2500585615634918
1706235924500368191,0.1220381334424019,9.760571479797365,-1.0109153985977175,0.029520567506551743,2.444875955581665,-0.25041231513023376
1706235924510274858,0.11830557882785797,9.765970230102539,-1.0012832880020144,0.02781035751104355,2.4444823265075684,-0.25091972947120667
1706235924520158376,0.1286284774541855,9.760241508483888,-1.017388463020325,0.026865821331739426,2.444187641143799,-0.25136229395866394
1706235924530515932,0.1278984993696213,9.77169704437256,-1.0028611421585085,0.026743993163108826,2.4440689086914062,-0.2515581548213959
1706235924540306117,0.1275782585144043,9.771718978881836,-1.0087970495224001,0.0274755097925663,2.444223403930664,-0.25150081515312195
1706235924550112413,0.12148937582969666,9.776784896850586,-1.0179573297500613,0.028939558193087578,2.444898843765259,-0.25128602981567383
1706235924559906098,0.1231101229786873,9.770350456237795,-1.0047976970672607,0.0306811835616827,2.4463322162628174,-0.2511158287525177
1706235924569911709,0.11685254424810411,9.756185531616211,-1.0039465427398682,0.032029662281274796,2.44836163520813,-0.2511639893054962
1706235924580771487,0.12433478981256486,9.770349502563477,-0.9994003772735596,0.032445028424263,2.450242280960083,-0.2512422502040863
1706235924590556821,0.12344275414943695,9.770022392272951,-1.0095100402832031,0.031832221895456314,2.451150894165039,-0.2509036660194397
1706235924600560561,0.1253239065408707,9.770710945129396,-1.0107791423797607,0.03061038628220558,2.450925350189209,-0.24999268352985382
1706235924610407376,0.1190054714679718,9.766992568969727,-1.003246545791626,0.029412835836410522,2.4500832557678223,-0.24888001382350922
1706235924620251617,0.1155342534184456,9.75042724609375,-1.0082463026046755,0.028613071888685226,2.449145555496216,-0.24806848168373108
1706235924630050987,0.11760172247886658,9.762605667114258,-1.0103784799575808,0.028107423335313797,2.4481074810028076,-0.24778485298156738
1706235924639914172,0.12275548279285431,9.76326656341553,-1.0013680458068848,0.027577292174100876,2.446661949157715,-0.24799107015132904
1706235924649767339,0.12598472833633423,9.774079322814943,-1.014280676841736,0.026949524879455566,2.444887161254883,-0.24849887192249298
1706235924660762543,0.11207736283540727,9.772400856018068,-1.0187878608703613,0.02647286280989647,2.4434831142425537,-0.2491532415151596
1706235924670623932,0.11523202806711198,9.767314910888672,-1.000594735145569,0.026281436905264854,2.4432597160339355,-0.250008761882782
1706235924680534783,0.11855396628379822,9.765980720520021,-1.009345293045044,0.02612960897386074,2.4444379806518555,-0.25104594230651855
1706235924690415080,0.1135207861661911,9.758195877075195,-1.0009804964065554,0.025706062093377113,2.446406841278076,-0.2518700361251831
1706235924700354265,0.11278444528579712,9.76057529449463,-1.0186063051223757,0.024930477142333984,2.4480903148651123,-0.25204998254776
1706235924710201339,0.1148255541920662,9.752453804016115,-1.0017273426055908,0.023877814412117004,2.4485385417938232,-0.2516006529331207
1706235924720116654,0.12179736793041229,9.761226654052734,-1.0052518844604492,0.022730564698576927,2.4473588466644287,-0.25087663531303406
1706235924730020283,0.11729910224676134,9.771388053894045,-1.0099953413009646,0.021842803806066513,2.4449243545532227,-0.2501382529735565
1706235924739927191,0.12507559359073642,9.76936435699463,-1.0151571035385134,0.021617436781525612,2.442337989807129,-0.2495342344045639
1706235924749812191,0.1173315942287445,9.770003318786623,-1.0110430717468262,0.02225186489522457,2.4409031867980957,-0.24933581054210663
1706235924760822339,0.12630778551101685,9.77271842956543,-1.0058205127716064,0.023621119558811188,2.4413466453552246,-0.24977362155914307
1706235924770704598,0.12255209684371948,9.743371963500977,-1.0154757499694824,0.02538549341261387,2.443385362625122,-0.250720739364624
1706235924780587894,0.12553158402442932,9.77577304840088,-1.0015584230422976,0.027198903262615204,2.4458329677581787,-0.2517692446708679
1706235924790475543,0.12380306422710419,9.755502700805664,-1.0013213157653809,0.028814585879445076,2.4473841190338135,-0.2524501383304596
1706235924800388135,0.13704009354114535,9.76563835144043,-1.009292244911194,0.030138593167066574,2.4475064277648926,-0.25234633684158325
1706235924810334302,0.128785714507103,9.754508972167969,-1.014226794242859,0.03132406622171402,2.446444272994995,-0.2514019012451172
1706235924820280283,0.1223037987947464,9.765316009521484,-1.0157859325408936,0.03260715305805206,2.4447181224823,-0.25018763542175293
1706235924830092857,0.12261371314525604,9.769689559936523,-1.0080978870391846,0.033882491290569305,2.442929267883301,-0.24954728782176971
1706235924839930691,0.12290862202644348,9.767670631408693,-1.0134791135787966,0.0346619077026844,2.441763401031494,-0.2499195784330368
1706235924849877894,0.12528318166732788,9.754496574401857,-1.0081684589385986,0.03454993665218353,2.441697597503662,-0.2510893642902374
1706235924859800469,0.12155759334564209,9.760228157043459,-1.0013216733932497,0.03359678015112877,2.442528009414673,-0.25243133306503296
1706235924870781894,0.12534071505069735,9.759907722473146,-1.006320357322693,0.032202694565057755,2.443463087081909,-0.25322189927101135
1706235924880678154,0.1315587013959885,9.77137088775635,-1.0113309621810915,0.030883250758051872,2.4438576698303223,-0.25299975275993347
1706235924890554450,0.1253708004951477,9.770020484924318,-0.995898962020874,0.03013763763010502,2.4437692165374756,-0.25184935331344604
1706235924900430876,0.11519559472799303,9.766978263854982,-1.0077803134918213,0.030198898166418076,2.4437897205352783,-0.25018781423568726
1706235924910318302,0.11989930272102356,9.762275695800781,-1.0124003887176514,0.03072451427578926,2.444383382797241,-0.24845606088638306
1706235924920200135,0.12313990294933319,9.762606620788576,-1.0025447607040407,0.031011532992124557,2.445427179336548,-0.2471376359462738
1706235924930080543,0.12050368636846544,9.76698970794678,-1.0100935697555544,0.030639443546533585,2.4463911056518555,-0.24661889672279358
1706235924940024820,0.12527808547019958,9.768346786499023,-1.0145244598388672,0.029744131490588188,2.4468774795532227,-0.24695368111133575
1706235924949907450,0.1393851637840271,9.774083137512209,-1.005143165588379,0.028857015073299408,2.446953535079956,-0.24797217547893524
1706235924959838746,0.14137281477451327,9.757547378540039,-1.0061403512954714,0.028765294700860977,2.4469854831695557,-0.24936096370220184
1706235924969796413,0.12340332567691803,9.778461456298828,-1.0050190687179568,0.030165627598762512,2.4472129344940186,-0.2506093680858612
1706235924980793394,0.13970452547073364,9.759223937988281,-1.009641766548157,0.03301280736923218,2.4476163387298584,-0.2512351870536804
1706235924990655117,0.1259947419166565,9.77406978607178,-1.0044504404067995,0.03642307221889496,2.4480795860290527,-0.2511088252067566
1706235925000511783,0.12481442093849182,9.767993927001953,-0.9992854595184326,0.03927388787269592,2.4485020637512207,-0.2504095733165741
1706235925010391746,0.11901839077472687,9.758883476257326,-1.005702614784241,0.04065834730863571,2.4488117694854736,-0.24933598935604095
1706235925020342968,0.12652467191219333,9.758536338806154,-1.0078896284103396,0.0401095487177372,2.448821783065796,-0.24806667864322662
1706235925030186117,0.13485489785671237,9.765975952148438,-1.0109403133392334,0.037901535630226135,2.448207378387451,-0.24694740772247314
1706235925040109135,0.13529141247272494,9.765989303588867,-1.0094904899597168,0.03512808308005333,2.446903944015503,-0.24644534289836884
1706235925049963172,0.13723799586296082,9.762618064880373,-1.006723403930664,0.03320327401161194,2.4453389644622803,-0.24682827293872833
1706235925059871950,0.12573887407779696,9.77037239074707,-1.0086845159530642,0.033025965094566345,2.444110870361328,-0.24793827533721924
1706235925070855117,0.1192343682050705,9.764303207397461,-1.0031046867370605,0.03440016135573387,2.443622589111328,-0.24928018450737
1706235925080769783,0.1292042583227158,9.759884834289553,-1.0035028457641602,0.036185674369335175,2.4439210891723633,-0.25027984380722046
1706235925090630135,0.12849615514278415,9.7680139541626,-1.0169435739517214,0.03719845786690712,2.444668769836426,-0.25057780742645264
1706235925100481246,0.1338230520486832,9.760930061340334,-1.012144207954407,0.03706876561045647,2.4453792572021484,-0.25032752752304077
1706235925110339468,0.12739188969135287,9.766322135925295,-1.0049774646759033,0.03625580295920372,2.445749521255493,-0.2500903606414795
1706235925120242357,0.1278670281171799,9.77002811431885,-1.0033540725708008,0.035429973155260086,2.445767641067505,-0.25021079182624817
1706235925130120802,0.12785783410072327,9.764956474304201,-1.004446625709534,0.0349501371383667,2.4456686973571777,-0.25046390295028687
1706235925140026024,0.136453777551651,9.769360542297365,-1.0057979822158816,0.03484765812754631,2.4457502365112305,-0.2504008114337921
1706235925149907876,0.13151171803474426,9.772073745727539,-1.0045385360717773,0.03511643409729004,2.4461708068847656,-0.24982289969921112
1706235925160887709,0.12773151695728305,9.762925148010256,-1.0034904479980469,0.03577645123004913,2.446927070617676,-0.24886684119701385
1706235925170767598,0.12425496429204942,9.762591361999513,-1.0024260282516482,0.036633312702178955,2.447810411453247,-0.24779433012008667
1706235925180672561,0.13335938751697543,9.756848335266115,-1.0038841962814333,0.03725257143378258,2.448357582092285,-0.24680598080158234
1706235925190602783,0.13046990334987643,9.771364212036133,-1.0035078525543213,0.037347204983234406,2.4481139183044434,-0.2460150420665741
1706235925200490654,0.11968235671520233,9.761916160583498,-1.0054466724395752,0.03698892891407013,2.4470789432525635,-0.24549463391304016
1706235925210373746,0.13170503079891208,9.767325401306154,-1.0034682750701904,0.03633866086602211,2.4457526206970215,-0.24529030919075012
1706235925220299172,0.13092355430126193,9.769018173217773,-1.0074374675750732,0.03551480919122696,2.444737434387207,-0.24539826810359955
1706235925230161987,0.14252026379108432,9.776103973388672,-1.0174858570098877,0.034838564693927765,2.4444658756256104,-0.24582962691783905
1706235925240069394,0.12038353830575944,9.77138900756836,-1.0038318634033203,0.03479822352528572,2.445188522338867,-0.2466980665922165
1706235925249864209,0.1269015669822693,9.772705078125,-0.9994617700576782,0.035503286868333817,2.4468865394592285,-0.2479831427335739
1706235925260841894,0.1307330280542374,9.756520271301271,-1.0078853368759157,0.03643196076154709,2.449097156524658,-0.24922746419906616
1706235925270740172,0.12725041806697848,9.770358085632326,-1.0091841220855713,0.0369596965610981,2.4509546756744385,-0.2498646229505539
1706235925280619579,0.12109321355819702,9.771351814270021,-1.0000925064086914,0.036845382302999496,2.45170259475708,-0.24976247549057007
1706235925290509968,0.11383378505706787,9.761588096618654,-1.0035299062728884,0.03605140000581741,2.451256036758423,-0.24913780391216278
1706235925300383061,0.12440241128206254,9.76530170440674,-1.0073986053466797,0.0345010869204998,2.450059413909912,-0.24822033941745758
1706235925310254413,0.1306639313697815,9.767659187316896,-1.009913682937622,0.032333824783563614,2.448584794998169,-0.24728192389011383
1706235925320176394,0.13532669842243197,9.761585235595703,-1.0041992664337158,0.03024935908615589,2.447187900543213,-0.24669700860977173
1706235925329981283,0.11518514156341553,9.77002811431885,-1.0093603134155273,0.02918190509080887,2.4461286067962646,-0.24671068787574768
1706235925339885227,0.1277010142803192,9.771695137023928,-1.003188490867615,0.029459241777658463,2.4455785751342773,-0.24725036323070526
1706235925350789561,0.13007456064224243,9.77609634399414,-1.0064880847930908,0.030584292486310005,2.445721387863159,-0.2480044960975647
1706235925360716079,0.12188667804002763,9.765972137451172,-1.002288818359375,0.031875550746917725,2.446694850921631,-0.2486034631729126
1706235925370587227,0.1283356994390488,9.760912895202638,-1.006449341773987,0.03291052579879761,2.448270082473755,-0.248784601688385
1706235925380462616,0.1235063225030899,9.764632225036623,-1.015894889831543,0.03347987309098244,2.4497241973876953,-0.24856026470661163
1706235925390357950,0.11297748237848283,9.769672393798828,-1.0034141540527344,0.033481188118457794,2.4502997398376465,-0.24827732145786285
1706235925400229746,0.11793902516365051,9.76124668121338,-1.0022480487823486,0.032782360911369324,2.4497954845428467,-0.2482917457818985
1706235925410122505,0.12620270252227783,9.765627861022951,-1.0048156976699831,0.03129872679710388,2.448559284210205,-0.24854110181331635
1706235925420020413,0.12820246815681458,9.76259994506836,-1.0026955604553223,0.02938127890229225,2.4470725059509277,-0.24865248799324036
1706235925429876542,0.12285508215427399,9.757540702819826,-1.0128418207168581,0.027830637991428375,2.445676326751709,-0.2484072595834732
1706235925440862487,0.11982983350753784,9.766655921936037,-1.0114736557006836,0.027283038944005966,2.4445016384124756,-0.24800051748752594
1706235925450709339,0.11858858913183214,9.761905670166016,-1.0027760267257693,0.027688702568411827,2.4435818195343018,-0.24787171185016632
1706235925460576616,0.11924395710229875,9.766310691833498,-1.0063631534576416,0.02843904308974743,2.443007707595825,-0.24822364747524261
1706235925470445061,0.11899268627166748,9.769333839416506,-1.0054552555084229,0.028882641345262527,2.4429121017456055,-0.24880822002887726
1706235925480319079,0.1193595826625824,9.763590812683107,-1.0083155632019043,0.028705259785056114,2.4433748722076416,-0.24924501776695251
1706235925490195357,0.12097350507974626,9.772057533264162,-1.0124572515487673,0.027988072484731674,2.44433856010437,-0.24939881265163422
1706235925500071616,0.10921802371740343,9.77440071105957,-1.008429765701294,0.027009760960936546,2.445646286010742,-0.24944612383842468
1706235925509951190,0.12140980362892151,9.761573791503906,-1.0044631958007812,0.025965550914406776,2.447153091430664,-0.24962733685970306
1706235925520892061,0.11115626245737077,9.765619277954102,-1.0078585147857666,0.024910373613238335,2.4486026763916016,-0.24994461238384247
1706235925530790264,0.10646099597215654,9.767646789550781,-1.0026569366455078,0.023842323571443558,2.449551820755005,-0.2501659691333771
1706235925540807838,0.1254294663667679,9.762259483337404,-1.0064010620117188,0.022717919200658798,2.4496846199035645,-0.2500585913658142
1706235925550633690,0.10672564059495927,9.765626907348633,-1.005606293678284,0.021608734503388405,2.4490370750427246,-0.24955683946609497
1706235925560535338,0.12368835508823395,9.765282630920412,-1.0065948963165283,0.02078353986144066,2.447890281677246,-0.2488042116165161
1706235925570413931,0.1255607008934021,9.779806137084961,-1.0116043090820312,0.02054748870432377,2.4467005729675293,-0.2480945736169815
1706235925580312394,0.11570106446743011,9.775753974914553,-1.0088348388671875,0.021148666739463806,2.4461171627044678,-0.24776023626327515
1706235925590189598,0.12263425439596178,9.77103042602539,-1.0102887153625488,0.022591404616832733,2.446728467941284,-0.24802418053150177
1706235925600096450,0.11903557181358337,9.765951156616211,-1.0018107891082764,0.024473538622260094,2.4485325813293457,-0.24882428348064423
1706235925610003246,0.12419810891151428,9.772043228149414,-1.0061620473861697,0.026247991248965263,2.4507877826690674,-0.24975992739200592
1706235925619937931,0.1236133724451065,9.772707939147951,-1.004831910133362,0.027585161849856377,2.452572822570801,-0.2503133714199066
1706235925630897246,0.1315959095954895,9.774081230163576,-1.0122369527816775,0.02850288711488247,2.4534480571746826,-0.2502335011959076
1706235925640763116,0.12648320198059082,9.762258529663086,-1.0126349925994873,0.029296748340129852,2.4535131454467773,-0.24974985420703888
1706235925650663135,0.1104651689529419,9.774420738220217,-1.0109690427780154,0.030200723558664322,2.453014850616455,-0.2494063377380371
1706235925660531116,0.11867559701204301,9.758546829223633,-1.0050404071807861,0.03095678612589836,2.4521172046661377,-0.24961084127426147
1706235925670425005,0.12301001697778703,9.762928962707521,-1.0037403106689453,0.030977332964539528,2.4508941173553467,-0.25026971101760864
1706235925680342468,0.12770821154117587,9.77137565612793,-1.014639139175415,0.030091334134340286,2.449378252029419,-0.2509116232395172
1706235925690198579,0.12545497715473178,9.764286994934084,-1.0098127126693728,0.02885882928967476,2.4477713108062744,-0.2512151002883911
1706235925700221264,0.13347607851028442,9.771726608276367,-1.0128504037857058,0.028123047202825546,2.4465012550354004,-0.25128865242004395
1706235925710062468,0.12675537168979648,9.775087356567383,-1.0105178356170654,0.028462033718824387,2.4459798336029053,-0.25142595171928406
1706235925719873061,0.12375400215387346,9.773753166198732,-1.0110771656036377,0.029901189729571342,2.4464495182037354,-0.25178590416908264
1706235925730837949,0.12475951015949249,9.77409076690674,-1.0120860338211062,0.03187812864780426,2.447913646697998,-0.2523253262042999
1706235925740644875,0.12770968675613403,9.761587142944336,-1.0118968486785889,0.03358347341418266,2.4499921798706055,-0.2529059946537018
1706235925750537672,0.12735024094581604,9.754161834716797,-1.0139169692993164,0.03449796140193939,2.451845645904541,-0.253422349691391
1706235925760440042,0.13626328110694885,9.769366264343263,-1.007048010826111,0.03466043621301651,2.4524521827697754,-0.2538262605667114
1706235925770314061,0.12957456707954407,9.761939048767092,-1.0097267627716064,0.03454853594303131,2.4513211250305176,-0.25403985381126404
1706235925780258857,0.12475554645061493,9.760562896728516,-1.009958028793335,0.03466533124446869,2.4488894939422607,-0.2539391815662384
1706235925790107246,0.1266819089651108,9.767312049865724,-1.0035349130630495,0.03509396314620972,2.4460859298706055,-0.2534638047218323
1706235925800080486,0.13172297179698947,9.771050453186037,-1.0135422945022585,0.0355268158018589,2.4438014030456543,-0.25266948342323303
1706235925809918172,0.1190197616815567,9.762917518615724,-1.00586473941803,0.035671256482601166,2.4426891803741455,-0.25172877311706543
1706235925819897449,0.1289885938167572,9.76362705230713,-1.0183172225952148,0.03540486842393875,2.4429168701171875,-0.2509339451789856
1706235925830857246,0.11918267607688904,9.762273788452148,-1.0155253410339355,0.03469955921173096,2.4440226554870605,-0.2506455183029175
1706235925840732079,0.1258073002099991,9.765967369079592,-1.0010569095611572,0.03362642601132393,2.445244312286377,-0.25109490752220154
1706235925850605598,0.12243667244911194,9.76226329803467,-1.0166034698486328,0.032366521656513214,2.4460175037384033,-0.25208336114883423
1706235925860483894,0.12565118074417114,9.770724296569826,-1.0143703222274782,0.03117150440812111,2.446199655532837,-0.2531070113182068
1706235925870367912,0.13147509098052979,9.76157855987549,-1.0055283308029177,0.03032875806093216,2.446000337600708,-0.2538449168205261
1706235925880245042,0.12882107496261597,9.768002510070803,-1.0074156522750857,0.030128968879580498,2.4457385540008545,-0.2541869580745697
1706235925890123005,0.13804978132247925,9.764984130859375,-1.006709933280945,0.03078906238079071,2.4456169605255127,-0.25399333238601685
1706235925899986857,0.1199762597680092,9.771358489990234,-1.0041478872299197,0.032292548567056656,2.4457130432128906,-0.2531767189502716
1706235925909956264,0.12761259078979492,9.766307830810547,-1.003748893737793,0.03420691192150116,2.4460742473602295,-0.2518342435359955
1706235925920934968,0.13099470734596252,9.76362419128418,-1.007714629173279,0.03580339998006821,2.4466757774353027,-0.2502073347568512
1706235925930815709,0.12242688983678819,9.765636444091797,-1.0046765804290771,0.03655918687582016,2.4473092555999756,-0.2486312836408615
1706235925940700079,0.13325975835323337,9.761603355407717,-1.0094343423843386,0.036438070237636566,2.4476566314697266,-0.24745771288871765
1706235925950578857,0.12701876461505893,9.770011901855469,-1.0073105096817019,0.03576027974486351,2.4475250244140625,-0.24692781269550323
1706235925960484023,0.13114073872566223,9.766652107238771,-1.008484125137329,0.03499646857380867,2.4470202922821045,-0.24709337949752808
1706235925970363079,0.12205450236797333,9.774087905883789,-1.0161700248718262,0.034508414566516876,2.4465227127075195,-0.2478448748588562
1706235925980231468,0.13330371677875522,9.766308784484865,-1.010975241661072,0.03435733914375305,2.4464590549468994,-0.24904265999794006
1706235925990108412,0.12987621128559115,9.758535385131836,-1.0018161535263064,0.03443712368607521,2.446955919265747,-0.2505062520503998
1706235926000003023,0.13169270753860474,9.764617919921875,-1.0055346488952637,0.03471693769097328,2.4476308822631836,-0.25180891156196594
1706235926010989079,0.12275487184524536,9.758193016052248,-0.9973517656326294,0.03519342094659805,2.447854518890381,-0.2523353397846222
1706235926020869857,0.1300884485244751,9.769359588623047,-1.0063678026199343,0.035691037774086,2.4472763538360596,-0.2516789138317108
1706235926030747912,0.12439551204442979,9.75753688812256,-1.0094711780548096,0.03592158481478691,2.4460606575012207,-0.24998463690280914
1706235926040638301,0.1304587721824646,9.760568618774414,-1.0051555633544922,0.035734448581933975,2.444641590118408,-0.24796022474765778
1706235926050513042,0.11687067896127702,9.774078369140625,-1.0022342205047607,0.03517813980579376,2.4434070587158203,-0.24641986191272736
1706235926060406375,0.13467267155647278,9.758219718933107,-1.003691077232361,0.03436759486794472,2.4426889419555664,-0.24571967124938965
1706235926070269820,0.11675999313592912,9.763254165649414,-1.0024322271347048,0.033447060734033585,2.4426865577697754,-0.24567647278308868
1706235926080167949,0.13572898507118225,9.771406173706055,-1.0086390972137451,0.032617952674627304,2.443258762359619,-0.24591977894306183
1706235926090072116,0.12378790229558946,9.759894371032717,-1.008847951889038,0.03210078924894333,2.444100856781006,-0.24624477326869965
1706235926099951820,0.124638669192791,9.762947082519531,-1.0107723474502566,0.03203790262341499,2.444953441619873,-0.24671317636966705
1706235926110967301,0.11316635459661485,9.765629768371584,-1.00981080532074,0.03227870911359787,2.445549249649048,-0.24748802185058594
1706235926120894801,0.11786022037267686,9.76328754425049,-1.004841446876526,0.0322917178273201,2.4457149505615234,-0.24858441948890686
1706235926130758653,0.11751097440719604,9.762963294982912,-1.0132944583892822,0.03151153028011322,2.445504665374756,-0.24977771937847137
1706235926140668820,0.11725777387619019,9.758196830749513,-0.9965909719467163,0.0298091359436512,2.445060968399048,-0.2507270276546478
1706235926150545208,0.11998363584280015,9.7572021484375,-1.0087479352951052,0.027582626789808273,2.44442081451416,-0.25110673904418945
1706235926160418227,0.12673205137252808,9.762584686279297,-1.012029051780701,0.025514664128422737,2.4435293674468994,-0.2507690191268921
1706235926170302968,0.12931038439273837,9.762939453125,-1.0030183792114258,0.024332446977496147,2.442452907562256,-0.2499578297138214
1706235926180191412,0.1282923370599747,9.76527214050293,-0.9903043508529663,0.024578748270869255,2.44150447845459,-0.24905361235141754
1706235926190155671,0.11875771731138231,9.760565757751467,-1.0081297159194949,0.026286553591489792,2.4410600662231445,-0.2480625957250595
1706235926200061301,0.11528925597667694,9.765635490417482,-1.0026048421859743,0.02875605598092079,2.4412667751312256,-0.24680568277835846
1706235926209948486,0.1282697767019272,9.764296531677248,-1.0083866119384766,0.030849508941173553,2.441988706588745,-0.2454674392938614
1706235926220979875,0.12004956603050232,9.776430130004883,-1.006794571876526,0.03177211806178093,2.4430296421051025,-0.2445557564496994
1706235926230876264,0.1297421902418137,9.77037239074707,-1.0111351013183594,0.03154945373535156,2.444368362426758,-0.24448926746845245
1706235926240757801,0.11613284051418304,9.760906219482422,-1.0081329345703125,0.03074929676949978,2.4460415840148926,-0.24537353217601776
1706235926250656616,0.12673518061637878,9.763262748718263,-1.0075770616531374,0.02992241457104683,2.447751998901367,-0.2469741255044937
1706235926260523727,0.13393296301364901,9.75821304321289,-1.0102440118789675,0.029399719089269638,2.448838949203491,-0.24881260097026825
1706235926270465949,0.12283199280500413,9.762250900268555,-1.007197380065918,0.029448773711919785,2.4487485885620117,-0.2503938674926758
1706235926280312486,0.14376920461654663,9.7791223526001,-0.9965365529060365,0.030286453664302826,2.4475226402282715,-0.25135067105293274
1706235926290266875,0.1275106966495514,9.757876396179201,-1.0146108865737917,0.031955819576978683,2.445906639099121,-0.2514398992061615
1706235926300137190,0.13678459823131564,9.782535552978516,-1.0073552131652832,0.03428024798631668,2.444866180419922,-0.2507197856903076
1706235926310051412,0.1242920309305191,9.757199287414553,-1.0037317276000977,0.03679795563220978,2.4449479579925537,-0.2496650665998459
1706235926319959060,0.12063353508710863,9.760541915893555,-0.9984440803527832,0.038785628974437714,2.4459869861602783,-0.24873895943164825
1706235926330004079,0.11737986654043199,9.759223937988281,-1.007688283920288,0.039460811764001846,2.4471635818481445,-0.24799378216266632
1706235926340957653,0.1128322184085846,9.769001007080078,-1.0070966482162478,0.03829404339194298,2.4475765228271484,-0.24731120467185974
1706235926350856727,0.13126204907894137,9.764946937561037,-1.0035264492034912,0.03536767512559891,2.446986675262451,-0.24675846099853516
1706235926360746042,0.13029448688030246,9.770706176757812,-1.007472038269043,0.03161203861236572,2.4459025859832764,-0.24650174379348755
1706235926370667838,0.1291082203388214,9.77576541900635,-1.0084713697433474,0.02853315882384777,2.4451141357421875,-0.24660301208496094
1706235926380537264,0.1207510232925415,9.770701408386232,-1.0070624351501465,0.027302980422973633,2.4452643394470215,-0.2470368891954422
1706235926390419912,0.12413594871759416,9.763267517089844,-1.00270414352417,0.02799092046916485,2.4465160369873047,-0.24770312011241913
1706235926400300005,0.1256476640701294,9.764984130859375,-1.0140343904495241,0.029727304354310036,2.4483494758605957,-0.2484007328748703
1706235926410227319,0.12483915686607361,9.770701408386232,-1.011889934539795,0.03148555010557175,2.449876070022583,-0.24901050329208374
1706235926420108801,0.13129024207592013,9.771045684814453,-1.0036540031433105,0.03267411142587662,2.4505364894866943,-0.24961839616298676
1706235926430085523,0.12981441617012024,9.755507469177248,-1.0123313665390017,0.03326371684670448,2.450362205505371,-0.25027719140052795
1706235926441023097,0.13502073287963867,9.76833724975586,-0.9976012706756592,0.033614542335271835,2.449578285217285,-0.25081518292427063
1706235926450975060,0.13219663500785828,9.775100708007812,-1.0098119974136355,0.034170281141996384,2.448399543762207,-0.2509489953517914
1706235926460838060,0.12950684130191806,9.764967918395998,-1.0057672262191775,0.03516029193997383,2.4472670555114746,-0.25051945447921753
1706235926470760005,0.1304883807897568,9.76261615753174,-1.0094383955001833,0.03644412383437157,2.44667911529541,-0.24968673288822174
1706235926480672782,0.12655870616436007,9.757870674133303,-1.008840799331665,0.03760842978954315,2.446640968322754,-0.24886329472064972
1706235926490561949,0.1314290165901184,9.776468276977539,-1.0191752910614014,0.03824703022837639,2.446704626083374,-0.24848641455173492
1706235926500447597,0.13743688166141513,9.766314506530763,-1.0085371732711794,0.03824971243739128,2.4466142654418945,-0.2488831877708435
1706235926510341227,0.12931118905544284,9.783866882324219,-1.0091619491577148,0.03791235014796257,2.4466466903686523,-0.25008609890937805
1706235926520232319,0.12617677450180054,9.760560035705568,-1.0082689523696902,0.037639107555150986,2.4472756385803223,-0.2516714334487915
1706235926530185430,0.13444721698760986,9.768354415893555,-1.0029290914535525,0.03753911331295967,2.448572874069214,-0.2529531419277191
1706235926540196764,0.12865404784679416,9.764292716979982,-1.0043303966522217,0.03749125450849533,2.449988842010498,-0.25335463881492615
1706235926550195005,0.1331054121255875,9.76396369934082,-1.005704402923584,0.03743365779519081,2.450779676437378,-0.2526516020298004
1706235926560051893,0.12348818033933641,9.760248184204102,-1.0077034235000613,0.03736996278166771,2.450523614883423,-0.25108078122138977
1706235926570040319,0.12077132612466814,9.755836486816406,-1.0058393478393555,0.03717883303761482,2.4491939544677734,-0.2492394596338272
1706235926581000690,0.13384939730167392,9.772735595703125,-1.0135443210601807,0.03661179542541504,2.4470672607421875,-0.24778684973716736
1706235926590967616,0.11824005842208862,9.764301300048828,-1.0068916082382204,0.035588398575782776,2.4447712898254395,-0.24718864262104034
1706235926600775356,0.12750393152236938,9.757527351379396,-1.0024029016494753,0.03430912271142006,2.4430882930755615,-0.247531458735466
1706235926610770430,0.12706978619098666,9.76597785949707,-1.0139036178588867,0.033047884702682495,2.442389965057373,-0.24845704436302185
1706235926620583782,0.12490571290254594,9.76020622253418,-0.9944192171096802,0.03205770626664162,2.442465305328369,-0.24940501153469086
1706235926630497838,0.1265363097190857,9.767649650573732,-1.0027961730957031,0.03152951970696449,2.4429116249084473,-0.2498617172241211
1706235926640388616,0.13796244561672213,9.780491828918459,-1.0126682519912722,0.03153902292251587,2.4435439109802246,-0.24950778484344482
1706235926650236967,0.12090783566236497,9.767657279968263,-1.0128958225250244,0.032117344439029694,2.444549322128296,-0.24855224788188934
1706235926660115449,0.1292120069265366,9.760919570922852,-1.007751703262329,0.03315688669681549,2.4461328983306885,-0.2477441281080246
1706235926670002171,0.11593916267156602,9.76125717163086,-1.010704755783081,0.03422178700566292,2.4479260444641113,-0.24773399531841278
1706235926680981930,0.11536773294210435,9.776774406433107,-1.0145699977874756,0.03465523198246956,2.449152708053589,-0.2486172616481781
1706235926690871893,0.12234775722026825,9.767677307128906,-1.0069109201431277,0.03392255678772926,2.449465036392212,-0.25008532404899597
1706235926700779245,0.11795365810394287,9.765966415405273,-1.0068082809448242,0.03199269622564316,2.4492008686065674,-0.25165656208992004
1706235926710659986,0.1164621114730835,9.754478454589844,-1.0006970167160036,0.02940785512328148,2.448758602142334,-0.2527516186237335
1706235926720546486,0.1224176287651062,9.771696090698242,-1.0082910060882568,0.02689947374165058,2.4481334686279297,-0.2528800070285797
1706235926730468264,0.12740299105644226,9.77237319946289,-1.0069528818130495,0.02508373185992241,2.447263717651367,-0.2519565224647522
1706235926740337708,0.1241445541381836,9.769680976867678,-1.0006263256072998,0.02442404255270958,2.4465014934539795,-0.25037679076194763
1706235926750214727,0.12373849749565125,9.764620780944826,-1.0112484693527224,0.025088543072342873,2.4463512897491455,-0.24870824813842773
1706235926760114893,0.11232864111661912,9.771372795104982,-1.0066642761230469,0.026712357997894287,2.4469125270843506,-0.24742260575294495
1706235926770017819,0.12293679267168046,9.772377014160156,-1.0065174102783203,0.028447257354855537,2.4478886127471924,-0.246833935379982
1706235926781004801,0.12121221423149109,9.760228157043459,-1.0037339925765993,0.029467636719346046,2.4489328861236572,-0.246975839138031
1706235926791006634,0.12413279712200165,9.759904861450195,-1.0115138292312624,0.029524702578783035,2.4496679306030273,-0.24757328629493713
1706235926800842949,0.11719267070293427,9.761261940002443,-1.0096173286437988,0.02894686907529831,2.449617624282837,-0.24831613898277283
1706235926810689745,0.1187390685081482,9.77102565765381,-1.002378225326538,0.028172679245471954,2.4485504627227783,-0.24905304610729218
1706235926820598986,0.11730854213237762,9.760231018066406,-1.0067571401596072,0.02741440385580063,2.446829080581665,-0.24964696168899536
1706235926830495171,0.12294115871191026,9.777114868164062,-1.0074169635772705,0.026713507249951363,2.4452083110809326,-0.24989965558052063
1706235926840421393,0.1261729896068573,9.752128601074219,-1.0027685165405273,0.02617836557328701,2.4443235397338867,-0.24973030388355255
1706235926850300412,0.11484719812870026,9.755849838256836,-1.0042792558670046,0.026028169319033623,2.4442250728607178,-0.24921885132789612
1706235926860623634,0.12972284853458407,9.767988204956055,-1.008988618850708,0.026362013071775436,2.444333076477051,-0.24850524961948395
1706235926870409634,0.11583993583917619,9.766300201416016,-1.0074753761291504,0.027049338445067406,2.4441206455230713,-0.2478126585483551
1706235926880224134,0.12160713970661163,9.763608932495117,-1.0060667991638184,0.02783486619591713,2.4436862468719482,-0.2474222183227539
1706235926890138856,0.11561591923236847,9.76530170440674,-1.0107669830322266,0.028398912400007248,2.4434404373168945,-0.24749279022216797
1706235926900031171,0.1152120977640152,9.764303207397461,-1.0115973949432373,0.02843330428004265,2.4435946941375732,-0.2480141818523407
1706235926910987430,0.12120409309864044,9.758557319641115,-1.0086823701858523,0.027801286429166794,2.4440531730651855,-0.24890786409378052
1706235926920886875,0.11513009667396545,9.762938499450685,-1.0066498517990115,0.026658665388822556,2.444504976272583,-0.2500084340572357
1706235926930778356,0.12624824047088623,9.761902809143068,-1.0011799335479736,0.025417443364858627,2.4446260929107666,-0.2509736716747284
1706235926940657671,0.11468318104743958,9.771013259887695,-1.0078760385513308,0.024543974548578262,2.444356918334961,-0.25137457251548767
1706235926950532134,0.12581150233745578,9.769703865051271,-1.0062667131423952,0.024323832243680954,2.444026231765747,-0.25099414587020874
1706235926960419060,0.12213538587093353,9.757861137390138,-1.004465103149414,0.024775920435786247,2.4440906047821045,-0.2500154674053192
1706235926970298615,0.1254183202981949,9.763947486877443,-1.0033411979675293,0.02576540596783161,2.4446358680725098,-0.24883480370044708
1706235926980183060,0.12242487072944641,9.775425910949709,-1.0080670118331911,0.02709682285785675,2.445328950881958,-0.24777576327323914
1706235926990098541,0.12942664325237277,9.763607025146484,-1.0072456598281863,0.0285338182002306,2.4459455013275146,-0.24704962968826294
1706235927000053504,0.12378793954849243,9.764965057373047,-1.0084083080291748,0.029883654788136482,2.4465365409851074,-0.24681399762630463
1706235927010993264,0.12888407707214355,9.762941360473633,-1.0094764232635498,0.031052235513925552,2.447064161300659,-0.24712985754013062
1706235927020952115,0.12825092673301697,9.776430130004883,-0.9983258247375488,0.03201650455594063,2.447360038757324,-0.2478635460138321
1706235927030844912,0.128619059920311,9.762598991394045,-1.0037523508071902,0.032813671976327896,2.4474520683288574,-0.24861907958984375
1706235927040701486,0.12884451448917392,9.75721073150635,-1.0070420503616335,0.03351179510354996,2.447496175765991,-0.24891291558742523
1706235927050597615,0.12571236491203308,9.77273178100586,-1.0117883682250977,0.034131649881601334,2.4474220275878906,-0.24860890209674835
1706235927060512986,0.13728596270084384,9.769689559936523,-1.006228804588318,0.03465098515152931,2.447113037109375,-0.2480788677930832
1706235927070424004,0.12786927819252014,9.757216453552248,-1.011728644371033,0.03512750193476677,2.4467413425445557,-0.24784108996391296
1706235927080320615,0.1296043246984482,9.771033287048342,-1.0054914951324463,0.03568011522293091,2.446500539779663,-0.2481510043144226
1706235927090234801,0.12075903266668321,9.765640258789062,-1.0101321935653689,0.03624493256211281,2.446373701095581,-0.24891038239002228
1706235927100109930,0.13701905310153964,9.771376609802248,-1.0109467506408691,0.03654186427593231,2.4463648796081543,-0.24983341991901398
1706235927110005078,0.14037911593914035,9.761929512023928,-1.0099710226058962,0.036494020372629166,2.4465677738189697,-0.25068625807762146
1706235927121005652,0.13562603294849399,9.76261615753174,-1.0121676921844482,0.03653593733906746,2.4469308853149414,-0.251388818025589
1706235927130897319,0.13087233901023865,9.77001953125,-1.0044679641723633,0.037207022309303284,2.4471960067749023,-0.2519264221191406
1706235927140766726,0.12300579249858856,9.77036762237549,-1.0086894035339355,0.0384700745344162,2.447209119796753,-0.2522214949131012
1706235927150808838,0.13986004889011386,9.759900093078615,-1.0065599679946902,0.039679594337940216,2.447110414505005,-0.25214383006095886
1706235927160741412,0.13043421506881714,9.769697189331055,-1.0088050365447998,0.040260180830955505,2.447058916091919,-0.2516663074493408
1706235927170607338,0.12751586735248568,9.762274742126467,-1.0117440223693848,0.040160585194826126,2.4470221996307373,-0.2509651780128479
1706235927180497282,0.12466953694820404,9.76360607147217,-1.007876753807068,0.03956449031829834,2.4468941688537598,-0.25035393238067627
1706235927190402319,0.1256881803274155,9.759572029113771,-1.0070445537567139,0.03853311389684677,2.44657039642334,-0.250078409910202
1706235927200268634,0.13387718796730042,9.764945983886719,-1.0015451908111572,0.03712976723909378,2.445960283279419,-0.2501029372215271
1706235927210169023,0.12415380775928497,9.763628005981445,-1.0082987546920779,0.03565268591046333,2.4451065063476562,-0.250127375125885
1706235927220066523,0.11915943771600725,9.759226799011232,-1.009810447692871,0.034455228596925735,2.4442155361175537,-0.24989603459835052
1706235927231061412,0.12604719400405884,9.77342414855957,-1.0120013952255251,0.03356732055544853,2.443526268005371,-0.2494940608739853
1706235927240947134,0.13343524932861328,9.77103900909424,-1.007120728492737,0.03281530737876892,2.4433045387268066,-0.24926425516605377
1706235927250821023,0.1288837939500809,9.759201049804688,-1.0001820325851443,0.03227856755256653,2.4438109397888184,-0.24939888715744019
1706235927260695708,0.1254753023386002,9.761251449584961,-1.001631259918213,0.03225323557853699,2.4449288845062256,-0.24965044856071472
1706235927270621504,0.1333555281162262,9.771368980407717,-1.0004279613494873,0.03282477706670761,2.4460697174072266,-0.2495056390762329
1706235927280452263,0.12472083419561387,9.758214950561523,-1.0080857276916504,0.0337720550596714,2.4467129707336426,-0.24866367876529694
1706235927290313226,0.1308964192867279,9.764618873596193,-1.004197955131531,0.03477149456739426,2.446733236312866,-0.24733249843120575
1706235927300222097,0.12567856907844543,9.765298843383789,-1.0078159570693972,0.03553490340709686,2.4462387561798096,-0.24607454240322113
1706235927310163060,0.12094930559396745,9.760225296020508,-1.005449414253235,0.035849735140800476,2.4454526901245117,-0.24540111422538757
1706235927320065893,0.12939321994781494,9.768003463745117,-1.0091707706451416,0.03558173030614853,2.444655418395996,-0.2455090582370758
1706235927331072763,0.11885542422533037,9.76224136352539,-1.0011210441589355,0.03474036231637001,2.4440789222717285,-0.2462613880634308
1706235927340940874,0.1246553361415863,9.75956439971924,-1.0183333158493044,0.03350849822163582,2.4438281059265137,-0.24732694029808044
1706235927350821134,0.11965406686067583,9.7636194229126,-1.005232810974121,0.03211773559451103,2.443800687789917,-0.24844728410243988
1706235927360796726,0.12347540259361267,9.771032333374023,-1.0132501125335693,0.030762886628508568,2.4438204765319824,-0.24955619871616364
1706235927370639152,0.11570751667022705,9.752796173095703,-1.0067551136016846,0.029581790789961815,2.4438674449920654,-0.25061163306236267
1706235927380462967,0.11455909162759782,9.755179405212404,-1.0083371400833132,0.02856895513832569,2.44389009475708,-0.251473069190979
1706235927390425726,0.12737759947776794,9.758236885070803,-1.0184735059738161,0.027598198503255844,2.4435572624206543,-0.2520144283771515
1706235927400269300,0.12528641521930697,9.764281272888185,-1.0054936408996582,0.02672245167195797,2.4426023960113525,-0.2523013949394226
1706235927410190800,0.1203029453754425,9.765295982360842,-1.0084941387176514,0.02629379741847515,2.441293239593506,-0.25249597430229187
1706235927420079337,0.11995653808116913,9.754839897155763,-1.0042892694473269,0.02655397541821003,2.440260410308838,-0.25256767868995667
1706235927431081967,0.13658548891544345,9.762593269348146,-1.0062692165374756,0.027371428906917572,2.439893960952759,-0.25230222940444946
1706235927440970245,0.12685231864452365,9.761584281921388,-1.0071479082107546,0.02857600897550583,2.4401044845581055,-0.2515748143196106
1706235927450842893,0.12514002621173861,9.766314506530763,-1.0064036846160889,0.03014795482158661,2.440638303756714,-0.25050854682922363
1706235927460738930,0.13151603937149048,9.752140998840334,-1.0133010149002077,0.03193390741944313,2.4413161277770996,-0.24943417310714722
1706235927470614023,0.11393113434314728,9.756827354431154,-1.002517104148865,0.033526573330163956,2.4418816566467285,-0.2487243413925171
1706235927480510300,0.129341721534729,9.764287948608398,-1.0071219205856325,0.03443947434425354,2.441978931427002,-0.2485438585281372
1706235927490388245,0.12107259780168535,9.76870346069336,-1.012256741523743,0.03436947986483574,2.441566228866577,-0.24875645339488983
1706235927500294078,0.12398492544889451,9.763257026672365,-1.0096317529678347,0.03342823684215546,2.441129684448242,-0.24917536973953247
1706235927510226745,0.1169038712978363,9.762938499450685,-1.0015532970428467,0.032019518315792084,2.4412343502044678,-0.24971458315849304
1706235927520115504,0.1203671768307686,9.757200241088867,-1.0091102123260498,0.03049381636083126,2.4419689178466797,-0.2502067983150482
1706235927530131541,0.12881198525428772,9.772722244262695,-1.0068253278732302,0.029077742248773575,2.442955255508423,-0.25040242075920105
1706235927540080319,0.12106192111968994,9.757180213928224,-1.0048463344573975,0.028046661987900734,2.4438109397888184,-0.25021374225616455
1706235927550126097,0.12845999002456665,9.762929916381836,-1.002392649650574,0.027698388323187828,2.444376230239868,-0.24972274899482727
1706235927561132060,0.12316800653934479,9.767323493957521,-1.0064131021499636,0.02812403254210949,2.444591760635376,-0.2490171641111374
1706235927571008041,0.12540841102600098,9.761268615722656,-1.0100088119506836,0.029130417853593826,2.444509744644165,-0.24822045862674713
1706235927580963930,0.12639528512954712,9.768674850463867,-1.0071079730987549,0.03035620041191578,2.4443342685699463,-0.24759775400161743
1706235927590855171,0.1312514841556549,9.765632629394531,-1.0133608579635622,0.03148701414465904,2.4442949295043945,-0.24745769798755646
1706235927600811689,0.12031707167625427,9.766637802124023,-1.0054371356964111,0.03239890933036804,2.4445459842681885,-0.24794596433639526
1706235927610688041,0.11729276925325395,9.759536743164062,-0.9932663440704346,0.03299201652407646,2.445073127746582,-0.2488502860069275
1706235927620574337,0.13224351406097412,9.765640258789062,-1.0102320909500124,0.033045943826436996,2.4456307888031006,-0.2495564967393875
1706235927630532226,0.12167191505432129,9.758872985839844,-1.0024007558822634,0.03251352906227112,2.4458892345428467,-0.2494930922985077
1706235927640464374,0.118210606276989,9.76597785949707,-1.0090416669845583,0.03168278560042381,2.4456679821014404,-0.24866983294487
1706235927660127300,0.11995827406644823,9.76631832122803,-1.0104278326034548,0.03012484684586525,2.444425582885742,-0.2467685043811798
1706235927671089022,0.11287939548492432,9.753456115722656,-0.9994384050369263,0.02957344986498356,2.4440884590148926,-0.24650005996227264
1706235927680948819,0.124130979180336,9.762250900268555,-1.004090189933777,0.029049593955278397,2.444000005722046,-0.246698260307312
1706235927690823337,0.12015150487422943,9.765950202941896,-1.0083091259002686,0.028364678844809532,2.443824052810669,-0.2470305860042572
1706235927700618411,0.1118505969643593,9.772712707519531,-1.0071048736572266,0.02753845974802971,2.44348406791687,-0.24726085364818573
1706235927710522856,0.12264449894428253,9.764281272888185,-1.0081326961517334,0.026676110923290253,2.4433608055114746,-0.24743737280368805
1706235927720398282,0.1258663535118103,9.763951301574709,-1.0105011463165283,0.02588147670030594,2.443830966949463,-0.24773643910884857
1706235927730353226,0.1263498514890671,9.768320083618164,-0.9990376234054565,0.02544856071472168,2.44482421875,-0.24823445081710815
1706235927740169152,0.11907091736793518,9.769691467285156,-1.0076837539672852,0.025742586702108383,2.445974349975586,-0.24876856803894043
1706235927751151930,0.11400580406188965,9.772701263427734,-1.0058796405792236,0.02672789804637432,2.4470407962799072,-0.2490410953760147
1706235927761071059,0.11942419409751892,9.775419235229492,-1.0033345222473145,0.027817130088806152,2.448059558868408,-0.2489134818315506
1706235927770963004,0.12774884700775146,9.765630722045898,-1.0095643997192383,0.028369270265102386,2.4491724967956543,-0.24849076569080353
1706235927780864745,0.13062062859535217,9.767674446105959,-1.010418176651001,0.02833966165781021,2.4503252506256104,-0.24802930653095245
1706235927790749763,0.11882593482732774,9.766972541809084,-1.000004768371582,0.028275616466999054,2.451176643371582,-0.24781714379787445
1706235927800688170,0.14183402061462402,9.765297889709474,-1.00623095035553,0.02872389741241932,2.4513704776763916,-0.24792206287384033
1706235927810642745,0.14203317463397983,9.757553100585938,-1.014623522758484,0.029998747631907463,2.4507694244384766,-0.24815987050533295
1706235927820625337,0.13269649446010592,9.76834487915039,-1.0084387063980105,0.03233124315738678,2.4494287967681885,-0.24845878779888153
1706235927830487707,0.13232631981372836,9.771727561950685,-1.007009506225586,0.03560382127761841,2.44765305519104,-0.24895381927490234
1706235927840406356,0.13243283331394198,9.76767349243164,-1.008416295051575,0.039059363305568695,2.446077346801758,-0.24965842068195343
1706235927850282393,0.13154108822345736,9.75923824310303,-1.010806441307068,0.04170355945825577,2.4453020095825195,-0.2503716051578522
1706235927860264967,0.13801613450050354,9.768350601196289,-1.0118879079818728,0.042952265590429306,2.4453697204589844,-0.25093182921409607
1706235927870145467,0.13869066536426547,9.770373344421388,-1.0064690113067627,0.04292634129524231,2.445875644683838,-0.2513435184955597
1706235927881062226,0.14141154289245605,9.763604164123537,-1.0117783546447754,0.04231354594230652,2.4464821815490723,-0.2516480088233948
1706235927890907763,0.13725270330905917,9.760248184204102,-1.013294816017151,0.04191562160849571,2.4470131397247314,-0.2518594563007355
1706235927900841744,0.11761884391307831,9.76258659362793,-1.0009759664535525,0.0420774482190609,2.447221279144287,-0.25200924277305603
1706235927910675504,0.13004890084266663,9.760245323181154,-1.0121943950653076,0.042356718331575394,2.446847438812256,-0.25205549597740173
1706235927920597430,0.14044255018234253,9.77004909515381,-1.0121214389801025,0.041993699967861176,2.4458980560302734,-0.251898854970932
1706235927930543022,0.1367434859275818,9.76798725128174,-1.00566041469574,0.040876105427742004,2.4447743892669678,-0.2516007721424103
1706235927940434411,0.13103175163269043,9.759547233581545,-1.0028722286224365,0.03967924788594246,2.444044351577759,-0.25129446387290955
1706235927950320430,0.13578689098358154,9.760944366455078,-1.0130705833435059,0.03906037658452988,2.443946123123169,-0.2509456276893616
1706235927960203911,0.12919995188713074,9.76090717315674,-1.0041308403015137,0.039126206189394,2.4441847801208496,-0.2504907548427582
1706235927970112078,0.1286149471998215,9.766304016113281,-1.004805088043213,0.03954102843999863,2.4443118572235107,-0.24999389052391052
1706235927981170004,0.13067850470542908,9.7636194229126,-1.0013262033462527,0.03981539607048035,2.444169521331787,-0.24947945773601532
1706235927991064226,0.13487069308757785,9.776117324829102,-1.0101323127746582,0.03962995111942291,2.4439797401428223,-0.24886740744113922
1706235928000983837,0.13462047278881076,9.76126003265381,-1.013921141624451,0.03907717764377594,2.444143772125244,-0.248226135969162
1706235928010801930,0.13809688389301303,9.761586189270021,-1.0055515766143799,0.03857841715216637,2.4448492527008057,-0.24789723753929138
1706235928020630707,0.13449528813362122,9.755518913269045,-1.0173816680908203,0.03856202960014343,2.445742607116699,-0.24821104109287262
1706235928030506244,0.12508761882781982,9.763290405273438,-1.0158131122589111,0.039130229502916336,2.446138858795166,-0.24924811720848083
1706235928040394763,0.11456646025180817,9.769013404846193,-1.0086883306503298,0.039821378886699677,2.4456608295440674,-0.2508871853351593
1706235928050317670,0.12628918886184692,9.769324302673342,-1.0039951801300049,0.039748914539813995,2.4446423053741455,-0.2527461349964142
1706235928060197522,0.12712995707988742,9.763285636901857,-1.0162458419799805,0.03830703720450401,2.4438488483428955,-0.25418224930763245
1706235928071124281,0.12681415677070618,9.763590812683107,-0.9981046319007875,0.03578624501824379,2.443789005279541,-0.2546858787536621
1706235928081088911,0.13334886729717257,9.775427818298342,-1.0078095197677615,0.0331689789891243,2.44442081451416,-0.2541359066963196
1706235928091007818,0.11673071235418321,9.757198333740234,-1.011813282966614,0.031402867287397385,2.445443868637085,-0.2527289390563965
1706235928100833541,0.12496283650398254,9.759889602661133,-1.0096234083175661,0.03079209476709366,2.4464731216430664,-0.25098639726638794
1706235928110674893,0.12311430275440216,9.77339839935303,-1.0013097524642947,0.030937116593122482,2.4470407962799072,-0.2495719939470291
1706235928120545226,0.13081559538841248,9.767664909362795,-1.0030224323272705,0.031272441148757935,2.446981430053711,-0.2487805187702179
1706235928130416522,0.1277403384447098,9.76224136352539,-1.0011804103851318,0.031577154994010925,2.446639060974121,-0.2483643889427185
1706235928140276522,0.13394877314567566,9.759895324707031,-1.0106310844421387,0.031988199800252914,2.4463627338409424,-0.2479332685470581
1706235928150164004,0.13262356817722323,9.77474594116211,-1.0003815889358523,0.032747648656368256,2.446155309677124,-0.24737747013568878
1706235928161162004,0.12914174795150757,9.762258529663086,-1.0150216817855837,0.03396971523761749,2.445979118347168,-0.24688667058944702
1706235928171015300,0.1324136704206467,9.775093078613281,-1.0068329572677615,0.03549966961145401,2.4459939002990723,-0.24675288796424866
1706235928180886078,0.12382996827363969,9.766287803649904,-1.0042550563812256,0.03694634884595871,2.4463887214660645,-0.24716736376285553
1706235928190769596,0.12723436951637268,9.764965057373047,-1.0027035474777224,0.037852440029382706,2.4471685886383057,-0.24798431992530823
1706235928200662207,0.12138645350933075,9.76497554779053,-1.0103613138198855,0.03787180408835411,2.44805908203125,-0.24875690042972565
1706235928210545578,0.1186848133802414,9.760580062866211,-1.0001671314239502,0.03688288480043411,2.448610305786133,-0.24912375211715698
1706235928220410652,0.11411721259355546,9.752471923828125,-1.0056823492050173,0.034960199147462845,2.448413133621216,-0.24899835884571075
1706235928240150189,0.12273436784744263,9.761242866516115,-1.0078442096710205,0.029412468895316124,2.4451820850372314,-0.2477383017539978
1706235928251122281,0.10837573558092119,9.760215759277344,-1.0074566602706911,0.026865100488066673,2.442858934402466,-0.24714651703834534
1706235928260941948,0.1169925332069397,9.754490852355959,-1.006775736808777,0.02504563517868519,2.440934658050537,-0.24696604907512665
1706235928270767133,0.1328070014715195,9.764629364013672,-1.011571288108826,0.023933058604598045,2.4397265911102295,-0.24728627502918243
1706235928280657207,0.12547558546066284,9.761582374572756,-1.0044434070587158,0.02360968105494976,2.4392318725585938,-0.24801720678806305
1706235928290525541,0.12453766167163849,9.75787353515625,-0.9988842606544496,0.02438509464263916,2.4393630027770996,-0.24888817965984344
1706235928305833522,0.1256809085607529,9.755518913269045,-1.018995761871338,0.028289560228586197,2.4405598640441895,-0.24944131076335907
1706235928320342911,0.1198040097951889,9.760234832763672,-1.0039756298065186,0.029764287173748016,2.440913438796997,-0.24915389716625214
1706235928330210133,0.11701978743076324,9.755840301513672,-1.0064178705215456,0.030196309089660645,2.440807819366455,-0.24911856651306152
1706235928340106578,0.124371774494648,9.771360397338867,-0.9997615814208984,0.029691027477383614,2.440352201461792,-0.24941639602184296
1706235928369934263,0.11807500571012498,9.76057529449463,-1.0053162574768066,0.027163080871105194,2.4420158863067627,-0.248361736536026
1706235928379835874,0.12023045867681505,9.772389411926271,-1.0118216276168825,0.02735789678990841,2.444014072418213,-0.24724870920181274
1706235928389786892,0.12128932774066925,9.75786876678467,-1.0074753761291504,0.027936598286032677,2.445730686187744,-0.2465217560529709
1706235928399757522,0.11908560991287231,9.7757568359375,-1.0023120641708376,0.02844683825969696,2.4467756748199463,-0.24654914438724518
1706235928419622948,0.1240202933549881,9.763601303100586,-1.001746416091919,0.028291581198573112,2.4471259117126465,-0.2478969246149063
1706235928429527892,0.1254846155643463,9.761233329772951,-0.9994101524353027,0.027751147747039795,2.446719169616699,-0.2480955868959427
1706235928439388300,0.12825532257556918,9.759881019592287,-1.003864049911499,0.027390331029891968,2.445950508117676,-0.24754732847213745
1706235928449309355,0.11890348792076111,9.7619104385376,-1.0082244873046875,0.027606504037976265,2.4448769092559814,-0.24643568694591522
1706235928459208966,0.11942028999328613,9.76564121246338,-1.015213966369629,0.028397731482982635,2.443690538406372,-0.2453462928533554
1706235928470207763,0.11952216923236847,9.765298843383789,-1.0111566781997683,0.029293356463313103,2.442720890045166,-0.24503804743289948
1706235928480090818,0.11612286418676378,9.771345138549805,-1.0021288394927979,0.029713688418269157,2.442343235015869,-0.24594491720199585
1706235928489965244,0.120260588824749,9.768655776977539,-1.005172371864319,0.029353344812989235,2.4428179264068604,-0.2477453052997589
1706235928499840707,0.11866024881601335,9.768334388732912,-1.0050231218338015,0.028301380574703217,2.4441490173339844,-0.24954405426979065
1706235928509722726,0.11999125033617021,9.765312194824219,-1.0059120655059814,0.02694825641810894,2.446004629135132,-0.2505500316619873
1706235928519634670,0.1157064661383629,9.76126003265381,-1.0154207944869997,0.025739584118127823,2.4477827548980713,-0.2505742013454437
1706235928529566189,0.11213421821594238,9.760241508483888,-1.0045464038848877,0.02489246241748333,2.4488272666931152,-0.2500319182872772
1706235928539435337,0.12171007692813873,9.766980171203615,-1.0040603876113894,0.02432328276336193,2.448730945587158,-0.24949446320533752
1706235928559200300,0.1187121719121933,9.765966415405273,-1.0020241737365723,0.02393186092376709,2.446228265762329,-0.248818039894104
1706235928570185337,0.12304864078760148,9.765617370605469,-1.000434398651123,0.024525539949536324,2.445261001586914,-0.24816615879535675
1706235928580065374,0.12831325829029086,9.757863044738771,-1.0014164447784424,0.02568233385682106,2.4450206756591797,-0.24711085855960846
1706235928589982929,0.11995404213666917,9.761595726013185,-1.000106453895569,0.027169331908226013,2.445204019546509,-0.24578367173671722
1706235928599852596,0.12680429220199585,9.76662826538086,-0.9953740835189819,0.028714075684547424,2.4452836513519287,-0.24441105127334595
1706235928609738559,0.1359427273273468,9.769336700439453,-0.9991236925125122,0.030099080875515938,2.4450433254241943,-0.24313899874687195
1706235928619622670,0.12188149988651276,9.759552955627443,-1.0085116624832156,0.03132876381278038,2.4447126388549805,-0.24205917119979858
1706235928629609540,0.12357111275196075,9.763603210449219,-0.9996351003646851,0.03248137608170509,2.4445598125457764,-0.24139434099197388
1706235928639484911,0.1345890462398529,9.765304565429688,-1.0092055797576904,0.033426433801651,2.4445736408233643,-0.2414294332265854
1706235928649323392,0.13468219339847567,9.76498317718506,-1.0172545909881592,0.03407072648406029,2.444629192352295,-0.2423163652420044
1706235928659204874,0.1341204047203064,9.770711898803711,-1.0084550380706787,0.03467852249741554,2.4447317123413086,-0.24410179257392883
1706235928670209300,0.12976889312267306,9.763622283935547,-1.0104688405990603,0.03560018539428711,2.4450080394744873,-0.2466563731431961
1706235928680083929,0.13201239705085754,9.767336845397951,-1.0090795755386355,0.036845624446868896,2.445531129837036,-0.2494858354330063
1706235928689960763,0.1349671930074692,9.760912895202638,-1.009913682937622,0.038105469197034836,2.4461729526519775,-0.2519003748893738
1706235928699874837,0.1285598874092102,9.770703315734865,-1.0156538486480713,0.03907129541039467,2.4466772079467773,-0.2534339427947998
1706235928729511392,0.14250861108303073,9.771713256835938,-1.0113556385040283,0.040057964622974396,2.4465253353118896,-0.25352147221565247
1706235928739429392,0.14004406332969666,9.769676208496094,-1.0039077997207644,0.04104732349514961,2.446308135986328,-0.25289008021354675
1706235928749311096,0.1390935778617859,9.768681526184084,-1.0085614919662478,0.04290148243308067,2.446457862854004,-0.25224393606185913
1706235928759193948,0.1254168152809143,9.766294479370117,-1.0045597553253174,0.045069582760334015,2.447096347808838,-0.2515634000301361
1706235928770160781,0.1388670802116394,9.773072242736818,-1.011932969093323,0.04660572484135628,2.4480316638946533,-0.2508137822151184
1706235928780054262,0.14400504529476169,9.771380424499513,-1.0089454650878906,0.04685702547430992,2.448993682861328,-0.2501150965690613
1706235928789978133,0.1303701400756836,9.775436401367188,-1.0128663778305056,0.04599125310778618,2.4498865604400635,-0.24971745908260345
1706235928799905596,0.13601842522621155,9.757526397705078,-1.0015277862548828,0.044678568840026855,2.450705051422119,-0.24978630244731903
1706235928809782522,0.1393808573484421,9.77271366119385,-0.9991563558578491,0.04344331845641136,2.4512627124786377,-0.2501343786716461
1706235928819689855,0.14452384412288669,9.761922836303711,-1.0066077709197998,0.042608581483364105,2.451244592666626,-0.25023457407951355
1706235928839478262,0.12549802660942078,9.772057533264162,-1.0118019580841064,0.04274656996130943,2.4492897987365723,-0.24866487085819244
1706235928849311559,0.1349925994873047,9.770381927490234,-1.0152184963226318,0.0429249033331871,2.4479784965515137,-0.24778775870800018
1706235928859228059,0.12648949027061462,9.764629364013672,-1.0094581842422488,0.04234076663851738,2.4471311569213867,-0.247710719704628
1706235928870188077,0.1313097029924393,9.763273239135742,-1.009911894798279,0.040944237262010574,2.4469738006591797,-0.24866600334644318
1706235928880075003,0.12987144291400912,9.76394557952881,-1.006188750267029,0.039130520075559616,2.4472227096557617,-0.2502889633178711
1706235928889938355,0.11234753578901292,9.758881568908693,-1.0104296207427979,0.037323903292417526,2.447359085083008,-0.25187423825263977
1706235928899794855,0.11907252669334412,9.764278411865234,-1.00403106212616,0.035581253468990326,2.4469923973083496,-0.2528211176395416
1706235928909659559,0.12475717812776567,9.761919021606445,-1.0061657428741455,0.033626776188611984,2.4460530281066895,-0.2528691291809082
1706235928919515244,0.13060897588729858,9.765963554382326,-1.0031613111495974,0.0314500592648983,2.4448087215423584,-0.25206491351127625
1706235928929395096,0.11771253496408464,9.75990104675293,-1.0111289024353027,0.029576025903224945,2.443681478500366,-0.25068914890289307
1706235928939288207,0.12659522891044617,9.76865863800049,-1.003875970840454,0.028543122112751007,2.442990779876709,-0.24920547008514404
1706235928949213336,0.1161715015769005,9.758213996887209,-1.0110937356948855,0.02839081920683384,2.442836284637451,-0.24809402227401733
1706235928960191559,0.11663099378347398,9.766313552856445,-1.0011686086654665,0.028689010068774223,2.443106174468994,-0.24761410057544708
1706235928979901429,0.11185824126005174,9.7713623046875,-1.010805606842041,0.02841014973819256,2.4441428184509277,-0.24807146191596985
1706235928989811411,0.11360201984643938,9.763936996459961,-0.9933947324752808,0.027289627119898796,2.4448633193969727,-0.24850133061408997
1706235928999684077,0.1169327422976494,9.75991439819336,-1.0062134265899658,0.025617722421884537,2.4457383155822754,-0.24870476126670837
1706235929009562799,0.12437614798545837,9.77171039581299,-1.0040268898010254,0.02378704957664013,2.4465112686157227,-0.2483854591846466
1706235929019454688,0.11652813851833344,9.765296936035156,-1.0002167224884033,0.0224162470549345,2.4469339847564697,-0.24752552807331085
1706235929029330522,0.13027153909206393,9.759883880615234,-1.0090225934982302,0.022053932771086693,2.4470129013061523,-0.24642978608608246
1706235929039267873,0.10656315088272095,9.766295433044435,-0.9992135763168335,0.02283335104584694,2.446821928024292,-0.24548040330410004
1706235929050229114,0.11510416120290758,9.752800941467287,-1.007469654083252,0.024281853809952736,2.4463229179382324,-0.24494057893753052
1706235929060139096,0.11377219110727312,9.764951705932617,-1.0088069438934326,0.025484750047326088,2.445434808731079,-0.24489723145961761
1706235929070042373,0.10805980861186981,9.760578155517578,-1.0055426359176638,0.02567589096724987,2.4441895484924316,-0.2453499138355255
1706235929099634466,0.11648591607809068,9.764287948608398,-1.0114394426345827,0.021228235214948654,2.4412078857421875,-0.248142272233963
1706235929109607633,0.11504776775836945,9.760225296020508,-1.0064319372177126,0.020193465054035187,2.44136643409729,-0.24863363802433014
1706235929119428022,0.09906525909900665,9.768996238708498,-1.005608320236206,0.019964035600423813,2.4421041011810303,-0.24882368743419647
1706235929129269522,0.11108098924160004,9.770695686340334,-1.0090668201446533,0.020043006166815758,2.4431676864624023,-0.24888142943382263
1706235929140265910,0.12061186134815216,9.765968322753906,-1.006425380706787,0.019785089418292046,2.4444239139556885,-0.2489161342382431
1706235929150094633,0.11401081830263139,9.769344329833984,-1.002963185310364,0.01912766695022583,2.445810556411743,-0.24896548688411713
1706235929160006188,0.11087197065353394,9.768001556396484,-1.009352684020996,0.01858111284673214,2.4471709728240967,-0.24897778034210205
1706235929169911114,0.10799111425876617,9.767994880676271,-1.0089865922927859,0.018496841192245483,2.4482991695404053,-0.2489054650068283
1706235929179834188,0.1253562569618225,9.76259994506836,-1.0060842037200928,0.018772775307297707,2.4490294456481934,-0.24883559346199036
1706235929199521262,0.1170659437775612,9.76023578643799,-0.9978151917457582,0.019966106861829758,2.4489474296569824,-0.24893206357955933
1706235929209357336,0.12068792432546617,9.762264251708984,-1.0026208162307741,0.02086721733212471,2.4482262134552,-0.24871020019054413
1706235929219237559,0.11537091434001923,9.76360607147217,-1.0084373950958252,0.02185133472084999,2.4471802711486816,-0.24798636138439178
1706235929230201855,0.11181005090475084,9.765295982360842,-1.002920985221863,0.02278773859143257,2.445948600769043,-0.24692149460315704
1706235929240122892,0.10973370820283891,9.777111053466797,-1.0038878917694092,0.023413874208927155,2.444864273071289,-0.24595412611961365
1706235929250012392,0.11325933784246446,9.762226104736328,-0.9980773329734803,0.023388486355543137,2.444418430328369,-0.24537059664726257
1706235929279623225,0.1132323145866394,9.776113510131836,-1.0119899511337282,0.020821914076805115,2.4473559856414795,-0.24548618495464325
1706235929289511373,0.12458181381225586,9.762935638427734,-1.010556936264038,0.02110571786761284,2.448434352874756,-0.24623554944992065
1706235929299398855,0.1235637590289116,9.75752925872803,-1.0013593435287478,0.02236436866223812,2.4491114616394043,-0.24741099774837494
1706235929309281021,0.13234977424144748,9.761935234069826,-1.0074225664138796,0.02430472895503044,2.449124574661255,-0.24873070418834686
1706235929320409244,0.12715083360671997,9.76226806640625,-1.0064030885696413,0.026686614379286766,2.448216199874878,-0.249723881483078
1706235929330251429,0.14153201878070834,9.770020484924318,-1.0107558965682986,0.029373306781053543,2.4465489387512207,-0.25011518597602844
1706235929340158336,0.1396938115358353,9.767676353454592,-1.009862542152405,0.03232119232416153,2.444793939590454,-0.2500385344028473
1706235929349951947,0.12737926840782166,9.766303062438967,-1.00205397605896,0.035501230508089066,2.4437339305877686,-0.24983234703540802
1706235929359825077,0.13373911380767822,9.770694732666016,-1.0010762214660645,0.03859452158212662,2.443772077560425,-0.24964553117752075
1706235929369697651,0.13404980301856995,9.765643119812013,-1.0068284273147585,0.04097282141447067,2.4447903633117676,-0.24931243062019348
1706235929379616336,0.14074259996414185,9.764634132385256,-1.0122941732406618,0.042227763682603836,2.446312427520752,-0.24870643019676208
1706235929399428207,0.13503129780292514,9.77338981628418,-1.0038605928421023,0.0423627607524395,2.4483296871185303,-0.24765756726264954
1706235929409314744,0.13357006013393405,9.76698112487793,-1.0017716884613037,0.04208770766854286,2.448131799697876,-0.24753445386886597
1706235929420312466,0.13012319803237915,9.764968872070312,-1.0098555088043213,0.04180002585053444,2.447507381439209,-0.24744926393032074
1706235929430182873,0.12768544256687167,9.764944076538086,-1.0015168190002441,0.04140103608369827,2.4469406604766846,-0.24728016555309296
1706235929449942003,0.1383030563592911,9.753145217895508,-1.010679602622986,0.04005643352866173,2.4464914798736572,-0.24710269272327423
1706235929459777003,0.13159814476966858,9.763951301574709,-1.0054458379745486,0.03972255438566208,2.4462878704071045,-0.24745483696460724
1706235929479517021,0.1330176293849945,9.764939308166506,-0.9988973736763002,0.04095054417848587,2.4449656009674072,-0.249087393283844
1706235929489396021,0.1387065351009369,9.755500793457031,-1.0080201625823975,0.04207915440201759,2.444373607635498,-0.2497010976076126
1706235929499264225,0.14211958646774292,9.76192855834961,-1.006249189376831,0.043136823922395706,2.444091796875,-0.24972961843013763
1706235929510278503,0.12562267482280734,9.766996383666992,-1.0042493343353271,0.04393656179308891,2.4438748359680176,-0.24921327829360962
1706235929520161447,0.14211124181747437,9.765327453613281,-1.0121722221374512,0.04433303698897362,2.4435999393463135,-0.24847829341888428
1706235929530200632,0.12668699026107788,9.757208824157717,-1.0060034990310671,0.04418547824025154,2.443418025970459,-0.24792173504829407
1706235929540233818,0.1284044533967972,9.76968002319336,-1.0078952312469482,0.043449707329273224,2.4434313774108887,-0.24782608449459076
1706235929549966114,0.12740431725978854,9.762239456176758,-1.004607915878296,0.04213646799325943,2.443596124649048,-0.24819420278072357
1706235929559815966,0.13326288759708407,9.766633987426758,-1.005301356315613,0.04033796861767769,2.443889617919922,-0.2487524151802063
1706235929569755466,0.12560926377773288,9.772719383239748,-1.0014127492904665,0.03837277740240097,2.444352149963379,-0.2491328865289688
1706235929589601632,0.12842281162738803,9.764958381652834,-1.0017411708831787,0.035654500126838684,2.445598840713501,-0.24849258363246918
1706235929609346669,0.1356530785560608,9.763598442077638,-1.0135065317153933,0.03554100915789604,2.4450721740722656,-0.2464103400707245
1706235929620398114,0.12307022511959076,9.768314361572266,-0.9980803132057191,0.0358097143471241,2.4439008235931396,-0.24532464146614075
1706235929630265410,0.12412753701210022,9.755857467651367,-1.0049779415130615,0.035896215587854385,2.4427456855773926,-0.24462130665779114
1706235929640148484,0.1290564686059952,9.761577606201172,-1.001078248023987,0.03563526272773743,2.4420340061187744,-0.2444220781326294
1706235929650050614,0.1287505775690079,9.759573936462404,-1.0101122856140137,0.03501114249229431,2.4417669773101807,-0.2446027547121048
1706235929659913873,0.12979727983474731,9.75820827484131,-1.007874369621277,0.03427852317690849,2.4416849613189697,-0.24506287276744843
1706235929679672336,0.12774020433425903,9.767304420471193,-1.0042684078216553,0.03365158289670944,2.4413881301879883,-0.24667319655418396
1706235929689583466,0.11547389626502991,9.767993927001953,-1.0101693868637087,0.033707212656736374,2.4414026737213135,-0.24738577008247375
1706235929699451688,0.12153676152229309,9.76865863800049,-0.9952936172485352,0.03354158252477646,2.4419589042663574,-0.24773550033569336
1706235929709334466,0.12917014956474304,9.766298294067383,-1.002528786659241,0.03281191736459732,2.4432034492492676,-0.247653529047966
1706235929720289262,0.12157107889652252,9.768016815185547,-1.0062266588211062,0.031614188104867935,2.4449281692504883,-0.24709567427635193
1706235929730264947,0.1257137656211853,9.756172180175781,-0.9953033328056337,0.030431602150201797,2.446643114089966,-0.2461683750152588
1706235929740149132,0.12556922435760498,9.760914802551271,-1.0087760686874392,0.02969830110669136,2.447725534439087,-0.24513906240463257
1706235929750096429,0.12123307585716248,9.758532524108888,-1.008594036102295,0.029557134956121445,2.447666883468628,-0.24432207643985748
1706235929759956447,0.12939591705799106,9.766303062438967,-1.0065330266952517,0.029891490936279297,2.4464170932769775,-0.2440781444311142
1706235929769867595,0.11915849894285203,9.771026611328125,-1.0119314193725586,0.03045842796564102,2.444550037384033,-0.24466711282730103
1706235929789648225,0.12568093836307528,9.77036762237549,-1.0070568323135378,0.03128964826464653,2.4422593116760254,-0.24774615466594696
1706235929809566503,0.12391638010740282,9.772044181823732,-0.9996084570884706,0.031112784519791603,2.4434447288513184,-0.25002333521842957
1706235929819431651,0.11418873071670532,9.768655776977539,-1.003773093223572,0.030877571552991867,2.4450666904449463,-0.24979087710380554
1706235929840356243,0.12502449750900269,9.763961791992188,-1.00626540184021,0.030008366331458092,2.4487905502319336,-0.247008815407753
1706235929850241910,0.11399270594120026,9.769333839416506,-1.0095739364624023,0.029549315571784973,2.449730634689331,-0.24555131793022156
1706235929860120910,0.11080102622509003,9.763279914855959,-1.0038064718246462,0.02918267995119095,2.4496567249298096,-0.24482907354831696
1706235929869994910,0.11924327164888383,9.759220123291016,-1.006411910057068,0.028550267219543457,2.4487900733947754,-0.24504835903644562
1706235929879896706,0.13798817992210388,9.766311645507812,-1.0072743892669678,0.02743527665734291,2.4474587440490723,-0.245975062251091
1706235929909513466,0.12632669508457187,9.771028518676758,-1.0017244815826416,0.02769085206091404,2.44437837600708,-0.24890778958797455
1706235929919467743,0.12107398360967637,9.754481315612795,-1.0048400163650515,0.030039304867386818,2.444803237915039,-0.2490611970424652
1706235929929304003,0.11446610838174821,9.772038459777834,-1.0101370811462402,0.032388366758823395,2.445727825164795,-0.24870146811008453
1706235929940282577,0.13520494103431702,9.77542495727539,-1.0072044134140017,0.033733680844306946,2.4466235637664795,-0.24810117483139038
1706235929950088965,0.11958449333906175,9.766643524169922,-1.0105302333831787,0.03371879458427429,2.447361707687378,-0.24769499897956848
1706235929960030503,0.12681232392787936,9.753476142883303,-1.004493236541748,0.032788801938295364,2.4480576515197754,-0.24778087437152863
1706235929979699595,0.1298579424619675,9.769673347473146,-1.0065933465957644,0.03071463666856289,2.44842791557312,-0.24894613027572632
1706235929989590521,0.1277037709951401,9.7680139541626,-1.012129306793213,0.03031553328037262,2.4479832649230957,-0.24936643242835999
1706235930009362817,0.14171315729618075,9.763625144958498,-1.0136834383010866,0.03153976798057556,2.4474997520446777,-0.24976707994937897
1706235930020368410,0.1352936327457428,9.769706726074219,-1.0087478160858154,0.033219028264284134,2.4474375247955322,-0.2502542734146118
1706235930030271058,0.12020325660705566,9.764973640441896,-1.0157979726791384,0.03550305962562561,2.4472806453704834,-0.2510712444782257
1706235930040161262,0.12888471782207492,9.76498317718506,-1.0154824256896973,0.03780302777886391,2.4470605850219727,-0.25212204456329346
1706235930050017280,0.13599362969398499,9.764273643493654,-1.0121308565139773,0.03925805166363716,2.44683837890625,-0.2533005475997925
1706235930069782151,0.12443092465400696,9.761577606201172,-1.0069022178649902,0.03896397724747658,2.4464385509490967,-0.2552550435066223
1706235930079681651,0.13019998371601108,9.776117324829102,-1.0093845129013064,0.03807081654667854,2.446384906768799,-0.2553495764732361
1706235930089602502,0.12880282104015353,9.757527351379396,-1.007929801940918,0.03710159659385681,2.4465396404266357,-0.2546178996562958
1706235930099491688,0.12251184135675432,9.766321182250977,-1.003583073616028,0.036181848496198654,2.446850538253784,-0.2532762289047241
1706235930109402132,0.13095866143703463,9.767991065979006,-1.0123490095138552,0.035363491624593735,2.4470860958099365,-0.25169727206230164
1706235930120398225,0.13078129291534424,9.761932373046875,-1.0115226507186892,0.03467875346541405,2.44706654548645,-0.25029435753822327
1706235930150174928,0.12093043327331543,9.758203506469727,-1.0115468502044678,0.034012001007795334,2.445904016494751,-0.25024327635765076
1706235930160122521,0.11944048851728441,9.767999649047852,-1.00431227684021,0.033659882843494415,2.4452626705169678,-0.2511952221393585
1706235930179943873,0.12435528635978699,9.766322135925295,-1.0127836465835574,0.03153754398226738,2.444075107574463,-0.2518613636493683
1706235930189759817,0.13021671772003174,9.773736000061037,-1.0136423110961914,0.030300870537757874,2.4441990852355957,-0.2511671483516693
1706235930209518336,0.1312175989151001,9.755849838256836,-1.0027338266372683,0.029742445796728134,2.4463086128234863,-0.24973222613334656
1706235930219377928,0.12463242560625078,9.754162788391115,-1.011181116104126,0.030596382915973663,2.447251796722412,-0.24952583014965057
1706235930230379243,0.13467179238796237,9.761948585510256,-1.0028454065322878,0.031876228749752045,2.447052478790283,-0.24943189322948456
1706235930240258262,0.12278416007757188,9.761245727539062,-1.0016614198684695,0.033269427716732025,2.445495843887329,-0.24926485121250153
1706235930279758095,0.12878362834453586,9.759891510009766,-1.0058395862579346,0.03486870229244232,2.44355845451355,-0.24762797355651855
1706235930289625447,0.11544322967529297,9.766971588134766,-0.999313235282898,0.03415534645318985,2.4456934928894043,-0.24756856262683868
1706235930299488447,0.12321311235427856,9.769001960754396,-1.0027306079864502,0.033224355429410934,2.447253465652466,-0.24741467833518982
1706235930320440484,0.13200947642326355,9.762591361999513,-1.0041762590408327,0.030740896239876747,2.4476895332336426,-0.24645531177520752
1706235930330303243,0.11842416226863861,9.762266159057617,-1.0056161880493164,0.029731443151831627,2.446958541870117,-0.24614505469799042
1706235930340212002,0.12187772989273071,9.768314361572266,-0.99463027715683,0.029329225420951843,2.4459195137023926,-0.24619901180267334
1706235930359966058,0.10925213247537614,9.764608383178711,-1.0012362003326416,0.02963396906852722,2.444340467453003,-0.2461615651845932
1706235930389634058,0.12470311671495439,9.775425910949709,-1.0071035623550417,0.026868896558880806,2.4452967643737793,-0.24441953003406525
1706235930399598132,0.10840898752212524,9.762930870056154,-1.002500057220459,0.02489454299211502,2.4462029933929443,-0.24439997971057892
1706235930409499187,0.11667592823505402,9.760548591613771,-0.9976668357849121,0.02321145310997963,2.4473750591278076,-0.24474039673805237
1706235930450262965,0.11435699462890625,9.762939453125,-1.0086601972579958,0.020865734666585922,2.4478697776794434,-0.2448919415473938
1706235930460118484,0.11355625092983246,9.763603210449219,-1.0023183822631836,0.02058256044983864,2.447256326675415,-0.2451518028974533
1706235930469977021,0.11558076739311218,9.758885383605959,-1.002934455871582,0.020277265459299088,2.4467318058013916,-0.2457856684923172
1706235930489724687,0.1319490671157837,9.767645835876467,-1.0005156993865967,0.020232312381267548,2.4454588890075684,-0.2467440366744995
1706235930499624687,0.12100517004728319,9.763265609741211,-1.0051074028015137,0.021035052835941315,2.4448602199554443,-0.24636214971542358
1706235930509513817,0.12350959330797197,9.756519317626953,-1.003324031829834,0.02274959161877632,2.444566011428833,-0.24547003209590912
1706235930519438613,0.12793374061584473,9.765636444091797,-1.01090669631958,0.025207052007317543,2.444465160369873,-0.24456727504730225
1706235930530393484,0.11868579685688019,9.764289855957031,-1.0076850652694704,0.027862880378961563,2.4442975521087646,-0.24421752989292145
1706235930540339039,0.12419088929891588,9.764625549316406,-1.0071437358856201,0.03009890578687191,2.444023370742798,-0.24475093185901642
1706235930560149947,0.12347545474767686,9.779810905456545,-1.012920618057251,0.03164532408118248,2.4441277980804443,-0.24788926541805267
1706235930599697835,0.12903699278831482,9.758891105651857,-1.0125598907470703,0.027218304574489594,2.452803134918213,-0.2530629634857178
1706235930609666243,0.12690407037734985,9.76258182525635,-1.0099899768829346,0.027190329506993294,2.4541780948638916,-0.252160906791687
1706235930619577521,0.1310323625802994,9.762247085571289,-0.997038722038269,0.028218690305948257,2.453761339187622,-0.2505258023738861
1706235930650353632,0.14250709116458896,9.777428627014162,-1.0057765245437624,0.03518195077776909,2.446566343307495,-0.24671326577663422
1706235930660222484,0.1317328363656998,9.763620376586914,-1.0139232873916628,0.03808064013719559,2.4458909034729004,-0.24666914343833923
1706235930670101558,0.1305869966745377,9.7747278213501,-0.9991735219955444,0.04090519994497299,2.4468722343444824,-0.24729934334754944
1706235930680066687,0.1280803680419922,9.761586189270021,-1.005754590034485,0.04300040379166603,2.4487674236297607,-0.24826985597610474
1706235930689955354,0.13544204831123352,9.778481483459474,-1.0179842710494997,0.043735213577747345,2.450605630874634,-0.2491130381822586
1706235930699852002,0.12618948519229892,9.77473258972168,-1.0049201250076296,0.043014656752347946,2.451812982559204,-0.24965626001358032
1706235930719645576,0.1271136999130249,9.773733139038086,-1.0078638792037966,0.039254263043403625,2.452562093734741,-0.2502899467945099
1706235930729546484,0.12813913822174072,9.756837844848633,-1.0005748271942139,0.03741841018199921,2.4523277282714844,-0.25019264221191406
1706235930739492761,0.1347644776105881,9.760892868041992,-1.0091100931167605,0.0360998660326004,2.4515364170074463,-0.24964752793312073
1706235930749488354,0.13086529076099399,9.767990112304688,-1.007935166358948,0.03544482961297035,2.450033187866211,-0.24880221486091614
1706235930759414687,0.12526234984397888,9.755534172058107,-1.0154274702072146,0.03547210618853569,2.4479408264160156,-0.248056560754776
1706235930770399743,0.1362082213163376,9.7653284072876,-1.006253957748413,0.03597048670053482,2.4456803798675537,-0.24788494408130646
1706235930809962798,0.12044289708137512,9.7680139541626,-1.0107076168060303,0.03651149943470955,2.443650722503662,-0.25017040967941284
1706235930819846187,0.12187699228525163,9.776115417480469,-1.0041580200195312,0.03518582507967949,2.445465564727783,-0.24948015809059143
1706235930829744502,0.12306444346904755,9.76564121246338,-1.015310883522034,0.033490899950265884,2.447598457336426,-0.24868831038475037
1706235930839689076,0.1328532546758652,9.762939453125,-1.008523941040039,0.031780365854501724,2.4495744705200195,-0.24832579493522644
1706235930859411817,0.129712387919426,9.757205963134766,-1.00675368309021,0.030285459011793137,2.4511163234710693,-0.24951839447021484
1706235930870309946,0.1201181411743164,9.76295280456543,-1.013749599456787,0.031073376536369324,2.4503214359283447,-0.2504909336566925
1706235930880170928,0.13688737154006958,9.760576248168945,-1.0126729011535645,0.03246304765343666,2.4486730098724365,-0.25126200914382935
1706235930899949817,0.11983552575111389,9.763956069946289,-1.0113835334777832,0.034867532551288605,2.444227933883667,-0.2521165907382965
1706235930909858724,0.12603633105754855,9.76260757446289,-1.015592694282532,0.035162363201379776,2.4423065185546875,-0.2521289885044098
1706235930929665224,0.1287161111831665,9.7744140625,-1.0098804235458376,0.03357357904314995,2.4408421516418457,-0.25200504064559937
1706235930939577891,0.12400846183300018,9.761942863464357,-1.0168339014053347,0.03264752775430679,2.441556930541992,-0.252329021692276
1706235930949431780,0.12850095331668857,9.761240959167482,-1.0096598863601687,0.032245296984910965,2.4430508613586426,-0.25290778279304504
1706235930970259483,0.13438944518566134,9.764945983886719,-1.0029355287551882,0.0326806902885437,2.4458858966827393,-0.25412264466285706
1706235930980152187,0.13225443661212924,9.760913848876953,-1.0146898031234743,0.03310452774167061,2.446136236190796,-0.25414755940437317
1706235930990025835,0.1345209777355194,9.761598587036133,-1.0033344030380251,0.033735111355781555,2.445591449737549,-0.25354906916618347
1706235930999928280,0.12987765669822693,9.761917114257812,-1.0072157382965088,0.03476348891854286,2.444589376449585,-0.25250494480133057
1706235931019647076,0.1228739470243454,9.764287948608398,-1.004364848136902,0.0373593233525753,2.442700147628784,-0.2503400146961212
1706235931039426483,0.12631370127201083,9.757863998413086,-1.0103052854537966,0.03745059296488762,2.4430909156799316,-0.24963968992233276
1706235931050366613,0.12474703788757324,9.752467155456545,-1.0064730644226074,0.03602820262312889,2.4443187713623047,-0.24958942830562592
1706235931060234687,0.11730727553367615,9.761929512023928,-1.0052667856216433,0.034122779965400696,2.445399045944214,-0.24952594935894012
1706235931080058965,0.12295213341712952,9.771039962768555,-1.017286777496338,0.030520755797624588,2.444387674331665,-0.24942262470722198
1706235931089888224,0.12645880877971652,9.768668174743654,-1.0064653158187868,0.029354384168982506,2.4427757263183594,-0.24974325299263
1706235931099730798,0.12426473945379259,9.761912345886232,-1.0092456340789795,0.028872519731521606,2.4416627883911133,-0.2505341172218323
1706235931109618854,0.1186511218547821,9.761268615722656,-1.0088890790939333,0.02905074506998062,2.4416542053222656,-0.25154539942741394
1706235931119492168,0.12200764566659929,9.774062156677248,-1.0020966529846191,0.02956903539597988,2.442596197128296,-0.25231072306632996
1706235931130456057,0.12411733716726304,9.761590957641602,-1.007016897201538,0.029982103034853935,2.444003105163574,-0.2524418532848358
1706235931160187428,0.12355225533246995,9.766633987426758,-1.0038342475891113,0.029642503708600998,2.4470512866973877,-0.2491026371717453
1706235931169998835,0.12683844566345215,9.762943267822266,-1.0032780170440674,0.029733452945947647,2.4468154907226562,-0.2478146106004715
1706235931199646835,0.12065430730581285,9.759227752685547,-1.0063536167144775,0.031724218279123306,2.444427967071533,-0.2456415891647339
1706235931209515391,0.11589748412370683,9.766314506530763,-1.0117808580398562,0.032144736498594284,2.443735361099243,-0.2455565482378006
1706235931219419409,0.12408661097288133,9.756893157958984,-1.0022296905517578,0.03187143802642822,2.443190813064575,-0.2460477501153946
1706235931240301168,0.11054123938083649,9.764332771301271,-1.0050719976425173,0.029446544125676155,2.4425885677337646,-0.2481619268655777
1706235931250236928,0.11763587594032288,9.76163959503174,-1.0054364204406738,0.027970539405941963,2.442596912384033,-0.24905221164226532
1706235931269975854,0.12038896977901459,9.76262950897217,-0.9964359998703003,0.025273410603404045,2.4429328441619873,-0.24924302101135254
1706235931279886798,0.12025299668312073,9.757221221923828,-1.0020183324813845,0.024464886635541916,2.442674398422241,-0.24832244217395782
1706235931289769576,0.1307509392499924,9.765026092529297,-1.0095421075820925,0.02436751127243042,2.4419989585876465,-0.24682293832302094
1706235931309591298,0.11469881236553192,9.763659477233888,-1.0068447589874268,0.026446044445037842,2.4409594535827637,-0.24431468546390533
1706235931319488131,0.11392660439014435,9.759271621704102,-1.0051536560058594,0.027818161994218826,2.4414637088775635,-0.24436824023723602
1706235931330483428,0.1216200739145279,9.765003204345703,-1.0035200119018555,0.028429793193936348,2.44256329536438,-0.24526247382164001
1706235931340356187,0.11576484143733978,9.758590698242188,-1.0133961439132693,0.027967635542154312,2.4437003135681152,-0.24652934074401855
1706235931350277131,0.12687005102634433,9.766691207885742,-1.0087039470672607,0.02677992731332779,2.4444048404693604,-0.24778935313224792
1706235931360175668,0.12533192336559298,9.765350341796875,-0.9999994039535522,0.025605157017707825,2.4445621967315674,-0.24889017641544342
1706235931409487613,0.12783549726009372,9.762658119201662,-0.9979525804519653,0.03566642105579376,2.4447860717773438,-0.24828197062015533
1706235931420490668,0.12802316248416903,9.772769927978516,-1.010390877723694,0.03766931965947151,2.4459290504455566,-0.2480778843164444
1706235931430371224,0.13240836560726169,9.76231575012207,-1.0134484767913818,0.03813261166214943,2.4472246170043945,-0.24816977977752686
1706235931440256094,0.13096067309379578,9.757606506347656,-1.0111908912658691,0.03748001530766487,2.4482309818267822,-0.24855650961399078
1706235931450140724,0.12032296508550645,9.767715454101562,-1.0082279443740847,0.036438725888729095,2.4485104084014893,-0.24933500587940216
1706235931460076557,0.12599286437034607,9.770750999450685,-1.0065482854843142,0.035460490733385086,2.447916269302368,-0.2504083514213562
1706235931489705409,0.12750035524368286,9.766051292419435,-1.0148986577987673,0.03316609933972359,2.4450461864471436,-0.25131866335868835
1706235931499650853,0.13622155785560608,9.761966705322266,-1.0036560297012331,0.033151451498270035,2.4444234371185303,-0.25021228194236755
1706235931519501483,0.12592507898807528,9.773797988891602,-1.0098849534988406,0.03543422371149063,2.4436872005462646,-0.24806655943393707
1706235931540401168,0.1256757825613022,9.759588241577148,-0.9979014992713929,0.03914735093712807,2.4448769092559814,-0.24756783246994019
1706235931550295298,0.12724776566028598,9.76128673553467,-1.0053138732910156,0.03976272791624069,2.446389675140381,-0.2478974461555481
1706235931560186631,0.1213952898979187,9.759944915771484,-1.0120306015014648,0.03901958093047142,2.4476969242095947,-0.2481972873210907
1706235931570084890,0.12690697610378268,9.768388748168945,-1.0007475614547732,0.037190031260252,2.4480502605438232,-0.2482752501964569
1706235931579961076,0.13019226491451266,9.764360427856445,-1.0091075897216797,0.03487997502088547,2.4473445415496826,-0.24821189045906067
1706235931589887279,0.13156819343566895,9.76567268371582,-1.0088224411010742,0.032864972949028015,2.44610595703125,-0.2481345385313034
1706235931599769261,0.129752516746521,9.761638641357422,-1.0086476802825928,0.03183653950691223,2.444977045059204,-0.24817423522472382
1706235931629536057,0.11964195966720581,9.760287284851076,-1.0058069229125977,0.03340352699160576,2.4445431232452393,-0.24912139773368835
1706235931650439427,0.12230007350444794,9.760643959045412,-1.0124679803848269,0.031389474868774414,2.4447481632232666,-0.24886634945869446
1706235931660359427,0.11880672723054887,9.753188133239748,-1.0004440546035769,0.028962453827261925,2.444103479385376,-0.24898040294647217
1706235931670152446,0.12042203545570374,9.768712997436523,-1.0069658756256104,0.026446117088198662,2.443002700805664,-0.24949070811271667
1706235931680085835,0.12188030034303667,9.761285781860352,-1.0076638460159304,0.024611158296465874,2.4417662620544434,-0.25002142786979675
1706235931699848594,0.1309805363416672,9.769080162048342,-1.0088152885437012,0.02425728365778923,2.440866470336914,-0.25008469820022583
1706235931709720853,0.1140546277165413,9.760295867919922,-1.01424777507782,0.02550043724477291,2.441748857498169,-0.249884694814682
1706235931719666816,0.1306377649307251,9.757609367370607,-1.013535499572754,0.027181534096598625,2.443216323852539,-0.24995210766792297
1706235931729570872,0.12737098336219788,9.757241249084474,-0.9997970461845399,0.028845742344856262,2.4445266723632812,-0.2504778504371643
1706235931739602131,0.10856443643569946,9.75891971588135,-1.0037976503372195,0.030192473903298378,2.444938898086548,-0.2512193024158478
1706235931750509668,0.12389959394931793,9.763654708862305,-0.9997856616973877,0.03092752955853939,2.4442152976989746,-0.25154075026512146
