Timestamp,IMU_Raw_x,IMU_Raw_y,IMU_Raw_z,IMU_Linear_Acc_X,IMU_Linear_Acc_Y,IMU_Linear_Acc_Z
1706236655526589829,0.1615111231803894,9.760547637939453,-1.0253925323486328,0.00271889241412282,0.001010702457278967,0.0015166436787694693
1706236655536001274,0.15391474962234497,9.764619827270508,-1.040804982185364,0.005690181162208319,0.0034947809763252735,0.0021905475296080112
1706236655545105237,0.15062554180622104,9.755848884582521,-1.033246159553528,0.009681927971541882,0.007284622639417648,0.0024985892232507467
1706236655556125329,0.16054899990558627,9.749096870422365,-1.0354369878768923,0.013782107271254063,0.011407962068915367,0.0020603640004992485
1706236655565112718,0.1640874147415161,9.773031234741211,-1.0159229040145876,0.017049310728907585,0.014626597985625267,0.0008637274731881917
1706236655575182366,0.1607683300971985,9.761892318725586,-1.0165585279464724,0.019195817410945892,0.01630646549165249,-0.00037746664020232856
1706236655586010737,0.14916203916072848,9.767644882202148,-1.0193756818771365,0.02045607753098011,0.016810648143291473,-0.0005362025112845004
1706236655595655774,0.160900816321373,9.749087333679201,-1.0364952087402344,0.021005546674132347,0.01686842367053032,0.0009904910111799836
1706236655605572663,0.14112551510334018,9.744014739990234,-1.0207188129425049,0.020791124552488327,0.016691692173480988,0.003636585082858801
1706236655615686366,0.16091315448284152,9.764942169189453,-1.0259774923324587,0.019752182066440582,0.015879379585385323,0.006165049504488707
1706236655626191440,0.16645076870918274,9.759837150573732,-1.0093584060668945,0.018136605620384216,0.014232032001018524,0.007764551788568497
1706236655636219144,0.14983473718166354,9.766626358032227,-1.0197185277938845,0.01665797270834446,0.012363677844405174,0.008548786863684654
1706236655645261385,0.16044344007968905,9.749765396118164,-1.0310553312301638,0.016014469787478447,0.011206201277673244,0.009077746421098709
1706236655657280626,0.148422509431839,9.758179664611818,-1.0266437530517578,0.01627008430659771,0.011115893721580505,0.009527531452476978
1706236655665961477,0.14863553643226624,9.770018577575685,-1.0301979780197146,0.016890298575162888,0.011756304651498795,0.009516771882772446
1706236655676076292,0.1629502773284912,9.758548736572266,-1.0204062461853027,0.01721656508743763,0.012736143544316292,0.00869900081306696
1706236655685798607,0.15791034698486328,9.753123283386232,-1.0092998743057253,0.01702195778489113,0.013873831368982792,0.00733153335750103
1706236655695252107,0.16233375668525696,9.781848907470703,-1.0151153802871706,0.01669662818312645,0.014965536072850227,0.0063103786669671535
1706236655705538292,0.16267141699790955,9.764938354492188,-1.004578232765198,0.0168223325163126,0.015984628349542618,0.0066264900378882885
1706236655715260588,0.15549279749393466,9.782506942749023,-1.0193191766738894,0.017678342759609222,0.01731935515999794,0.008674923330545425
1706236655726547107,0.17280136048793796,9.758546829223633,-1.0136939287185671,0.019124940037727356,0.01932414434850216,0.011965536512434483
1706236655735287718,0.14753472805023193,9.764932632446289,-1.0047850608825684,0.02079758048057556,0.02174544334411621,0.015447492711246014
1706236655745099737,0.15926796197891235,9.768334388732912,-1.02409303188324,0.022225912660360336,0.023763958364725113,0.018192745745182037
1706236655756986588,0.16239748895168307,9.762922286987305,-1.0112842321395876,0.022914694622159004,0.024655042216181755,0.019711624830961227
1706236655765433829,0.15667821466922763,9.773706436157227,-1.0120275020599365,0.02270299382507801,0.0243273563683033,0.019897611811757088
1706236655775631607,0.17216239869594577,9.770330429077148,-0.9951584935188295,0.021959977224469185,0.023295709863305092,0.01917470060288906
1706236655785353718,0.16241179406642917,9.779109954833984,-1.0052578449249268,0.021351264789700508,0.022372374311089516,0.018528209999203682
1706236655795322292,0.1483675390481949,9.775060653686523,-1.0136306285858154,0.021372929215431213,0.02229333110153675,0.01888115517795086
1706236655805253144,0.1488220989704132,9.771713256835938,-1.0209107398986816,0.02180900052189827,0.023362701758742332,0.020249061286449432
1706236655815489681,0.15015503764152527,9.762306213378906,-1.0457948446273806,0.021784596145153046,0.025224942713975906,0.02151085063815117
1706236655825539311,0.1563530117273331,9.769713401794435,-1.0460309982299805,0.020605342462658882,0.026974206790328026,0.020926371216773987
1706236655835276792,0.14841835200786593,9.777168273925781,-1.048086166381836,0.018384329974651337,0.027775021269917488,0.017082570120692253
1706236655845323551,0.1460583955049515,9.764312744140625,-1.0602638721466064,0.015785763040184975,0.027487020939588547,0.009780999273061752
1706236655855755162,0.15142589807510376,9.75387954711914,-1.0488353967666628,0.013405385427176952,0.02646239846944809,0.00015752033505123109
1706236655875686237,0.1480628997087479,9.767718315124513,-1.0483719110488894,0.01059708371758461,0.022783229127526283,-0.018173323944211006
1706236655890630477,0.15947367250919345,9.764666557312013,-1.0451966524124148,0.01054408773779869,0.02054479904472828,-0.023284224793314934
1706236655896050551,0.1615116000175476,9.768049240112305,-1.0495766401290896,0.011364729143679142,0.018814504146575928,-0.02481883205473423
1706236655955391273,0.1499662697315216,9.775185585021974,-1.0695524215698242,0.006136268377304077,0.01962076686322689,-0.03131699562072754
1706236655966428255,0.14076127111911776,9.752880096435547,-1.0625139474868777,0.0025346085894852877,0.018362663686275482,-0.03790874779224396
1706236655985261125,0.13482004404067993,9.758267402648928,-1.0475591421127322,0.0006704445113427937,0.016234811395406723,-0.0457366406917572
1706236656005335273,0.1381376087665558,9.768445014953615,-1.0682618618011475,0.0034786805044859648,0.015083684585988522,-0.039960283786058426
1706236656057626922,0.1376421004533768,9.769799232482912,-1.066165089607239,-0.0020109801553189754,0.01325495820492506,-0.039618417620658875
1706236656065560403,0.14686481654644015,9.766430854797365,-1.0655444860458376,-0.0029272150713950396,0.012159071862697601,-0.04686200991272926
1706236656085394107,0.12159862369298936,9.75935459136963,-1.0750625133514404,-0.0005324041121639311,0.01254796702414751,-0.05200154334306717
1706236656095612718,0.1395103931427002,9.758014678955078,-1.0737720727920534,0.0010541941737756133,0.01401564758270979,-0.04945879429578781
1706236656115158662,0.13022552430629733,9.75331211090088,-1.0871654748916628,0.00031276195659302175,0.01606929861009121,-0.04270672798156738
1706236656125158866,0.14328736066818237,9.753976821899414,-1.0832874774932861,-0.0017167613841593266,0.01583804003894329,-0.04186128452420235
1706236656135293107,0.14996081590652466,9.769843101501467,-1.0682722330093386,-0.0037084047216922045,0.014805338345468044,-0.04340532049536705
1706236656145342199,0.14626801013946533,9.754650115966797,-1.067611336708069,-0.004547684919089079,0.01348945777863264,-0.04624346271157265
1706236656155355088,0.13885986804962158,9.766451835632326,-1.0696969032287598,-0.0035318282898515463,0.01259242556989193,-0.04855708032846451
1706236656165298477,0.13762763142585754,9.756311416625977,-1.0670956373214724,-0.0009668844286352396,0.012514437548816204,-0.048958759754896164
1706236656175932570,0.13009274005889893,9.765754699707031,-1.0582081079483034,0.0019345040200278163,0.013185905292630196,-0.047142934054136276
1706236656185609514,0.1361350119113922,9.765088081359865,-1.0564490556716921,0.0037900886964052916,0.014297856949269772,-0.04360087960958481
1706236656195229607,0.13726386427879333,9.769140243530273,-1.0493112802505495,0.0038323705084621906,0.0156059879809618,-0.039034076035022736
1706236656206276033,0.13784207403659823,9.761701583862305,-1.0528248548507693,0.0022662575356662273,0.01701168902218342,-0.034063130617141724
1706236656215982903,0.14056265354156494,9.761369705200195,-1.0606529712677002,8.061098924372345e-06,0.018367275595664978,-0.02927863784134388
1706236656226530236,0.1338801383972168,9.752599716186523,-1.066422462463379,-0.0019339709542691708,0.019308805465698242,-0.025426071137189865
1706236656235622736,0.1356365978717804,9.747163772583008,-1.049292802810669,-0.0029949757736176252,0.0193113274872303,-0.023270318284630775
1706236656245783514,0.14163099229335788,9.765749931335451,-1.054943323135376,-0.00317871430888772,0.017993517220020294,-0.022994162514805794
1706236656256439699,0.13818977773189547,9.748864173889162,-1.0409724712371826,-0.0027498987037688494,0.015553121455013752,-0.023856448009610176
1706236656265849773,0.1315697431564331,9.763368606567383,-1.0492037534713747,-0.0019869282841682434,0.01278111431747675,-0.024617908522486687
1706236656276010736,0.14684568345546725,9.757993698120117,-1.0474632978439333,-0.0011958180693909526,0.010567164048552513,-0.024312015622854233
1706236656285656607,0.1521808356046677,9.755616188049318,-1.0513582229614258,-0.0005086787277832627,0.009477171115577221,-0.022767482325434685
1706236656295676625,0.14727200567722323,9.753593444824219,-1.0605473518371582,0.00039031429332681,0.009538429789245129,-0.020617593079805374
1706236656305703236,0.14385148882865906,9.754618644714357,-1.056952714920044,0.0019278996624052525,0.010253599844872952,-0.018910985440015793
1706236656315488625,0.14281801879405978,9.76202392578125,-1.0602128505706787,0.004030999727547169,0.010996870696544647,-0.018549447879195213
1706236656326205236,0.14191652834415439,9.760002136230469,-1.052663803100586,0.006083457265049219,0.011484337970614433,-0.019782405346632004
1706236656336952847,0.13149489462375644,9.752218246459961,-1.0490055084228516,0.007346140220761299,0.01181007456034422,-0.02204946056008339
1706236656345566533,0.13738322257995605,9.760993957519531,-1.0496703386306765,0.007283433806151152,0.012085267342627048,-0.024266377091407776
1706236656356471255,0.13736993074417114,9.776886940002443,-1.0614087581634521,0.005773111712187529,0.0123758465051651,-0.025475172325968742
1706236656365342051,0.1374003291130066,9.765071868896484,-1.0645281076431277,0.0032514811027795076,0.013023543171584606,-0.02552325837314129
1706236656375772421,0.14817145466804504,9.779223442077638,-1.0511538982391357,0.0005840930389240384,0.014547176659107208,-0.025084003806114197
1706236656386156255,0.15067625045776367,9.749531745910646,-1.0579404830932617,-0.0012334578204900026,0.017050456255674362,-0.024886058643460274
1706236656395987884,0.14607375860214233,9.767724990844727,-1.055056929588318,-0.0014059009263291955,0.01985810324549675,-0.025104409083724022
1706236656405846551,0.1490921974182129,9.763715744018555,-1.051710605621338,0.0002568358613643795,0.02189222350716591,-0.025489183142781258
1706236656415574662,0.1370247453451157,9.75494384765625,-1.069352388381958,0.0031457552686333656,0.022472096607089043,-0.025772694498300552
1706236656426197477,0.15065956115722656,9.764710426330568,-1.060392141342163,0.006145784631371498,0.021600881591439247,-0.02599894255399704
1706236656435997866,0.14014174044132235,9.755592346191406,-1.0593221187591553,0.008254523389041424,0.019714895635843277,-0.026497989892959595
1706236656445667366,0.14096008241176608,9.760991096496584,-1.0634649991989138,0.009021802805364132,0.01743660680949688,-0.0274481400847435
1706236656456053514,0.13352051377296448,9.752202033996584,-1.0522620677947998,0.00846333708614111,0.015318822115659714,-0.02863735891878605
1706236656465445884,0.13357035815715793,9.754231452941896,-1.0597491264343262,0.00676961662247777,0.01361442357301712,-0.029616504907608032
1706236656476200088,0.1343483775854111,9.764379501342773,-1.0598453283309939,0.004217114299535751,0.012320823036134243,-0.029988793656229973
1706236656486201310,0.1393129527568817,9.758976936340334,-1.0606191158294678,0.0012562014162540436,0.01147788017988205,-0.029707500711083412
1706236656495518403,0.13769683241844177,9.759294509887695,-1.0635368824005127,-0.0014593249652534723,0.011260935105383396,-0.02911156602203846
1706236656521920106,0.1245054304599762,9.756260871887209,-1.0636663436889648,-0.0033088484779000282,0.011676939204335213,-0.028698807582259178
1706236656527071699,0.12940272688865662,9.755596160888672,-1.0636241436004639,-0.004355613607913256,0.012816802598536015,-0.02986845187842846
1706236656535777014,0.13005787134170532,9.764695167541506,-1.063103795051575,-0.004722036421298981,0.012783383019268513,-0.03133649006485939
1706236656545440014,0.13545414805412292,9.75959873199463,-1.0579533576965332,-0.005575800780206919,0.012470881454646587,-0.032767247408628464
1706236656555242292,0.13358750939369202,9.762999534606935,-1.0604703426361084,-0.0066803148947656155,0.012340783141553402,-0.033617231994867325
1706236656567794199,0.1359325647354126,9.755908012390138,-1.0697259902954102,-0.007496789563447237,0.012691917829215527,-0.033621516078710556
1706236656576455106,0.13688784837722778,9.755579948425295,-1.0591005086898806,-0.00760425440967083,0.01340722106397152,-0.0329970084130764
1706236656585353884,0.12159152328968048,9.758259773254396,-1.0635963678359988,-0.006971963215619326,0.014053327962756157,-0.03224395215511322
1706236656595271792,0.12652680277824402,9.759264945983888,-1.0558065176010134,-0.006086683366447687,0.014250419102609158,-0.031682297587394714
1706236656605636032,0.1282121688127518,9.756219863891602,-1.0494730472564697,-0.0057221162132918835,0.013952688314020634,-0.031223423779010773
1706236656615827773,0.1231185644865036,9.743723869323732,-1.0361415147781374,-0.006359567400068045,0.013298718258738518,-0.030382059514522552
1706236656626885699,0.13070806860923767,9.753523826599123,-1.048722267150879,-0.007889876142144203,0.012275191955268383,-0.028490476310253143
1706236656635396699,0.13307183980941772,9.758920669555664,-1.0521990060806277,-0.009755541570484638,0.010811801999807358,-0.025290394201874733
1706236656645355847,0.12757062911987305,9.764960289001467,-1.0483734607696533,-0.011227153241634369,0.009239899925887585,-0.021408461034297943
1706236656656357736,0.12472594529390336,9.75993061065674,-1.0504975318908691,-0.011821124702692032,0.008321917615830898,-0.017993316054344177
1706236656665969329,0.11182144284248352,9.751134872436523,-1.043004035949707,-0.01169831957668066,0.008619261905550957,-0.01588515006005764
1706236656676131477,0.1099330484867096,9.76565170288086,-1.0545383691787722,-0.011670587584376335,0.00996170099824667,-0.015213390812277794
1706236656686017162,0.12641315162181857,9.768009185791016,-1.0571428537368777,-0.01265164464712143,0.011749936267733574,-0.015666255727410316
1706236656696122180,0.1295338273048401,9.765316963195803,-1.0567768812179568,-0.014783956110477448,0.01362511795014143,-0.016958292573690414
1706236656705356069,0.11996496468782426,9.751482009887695,-1.0501078367233279,-0.01716770976781845,0.015477781184017658,-0.018881002441048622
1706236656715304217,0.12741801142692566,9.759905815124513,-1.060201644897461,-0.01867123879492283,0.016974246129393578,-0.021065933629870415
1706236656725909717,0.12224337458610535,9.755866050720217,-1.0628557205200195,-0.018801331520080566,0.017577730119228363,-0.023091886192560196
1706236656735621236,0.12788535654544833,9.75752925872803,-1.0470873117446902,-0.01777145080268383,0.017041396349668503,-0.0247590783983469
1706236656746144680,0.12092373520135881,9.753838539123537,-1.0625193119049072,-0.016145989298820496,0.015598378144204617,-0.025975167751312256
1706236656756263032,0.11266962438821794,9.74877452850342,-1.0655186176300049,-0.014607792720198631,0.013691438362002373,-0.02668188326060772
1706236656765853051,0.12084352970123291,9.756894111633303,-1.059937357902527,-0.013851208612322807,0.011680538766086102,-0.02710730955004692
1706236656776142717,0.11632665991783142,9.757556915283203,-1.0579599142074587,-0.014306602999567986,0.009857021272182465,-0.027641501277685165
1706236656786207032,0.10731479525566101,9.744361877441406,-1.0448565483093262,-0.01590559631586075,0.008517218753695488,-0.028309717774391174
1706236656796113606,0.11793842911720276,9.759573936462404,-1.0512158870697021,-0.01826641894876957,0.007768828421831131,-0.028600558638572693
1706236656805486106,0.11252985894680023,9.74873447418213,-1.036193609237671,-0.02091209776699543,0.0074606770649552345,-0.027833009138703346
1706236656816466458,0.1126416027545929,9.748400688171388,-1.0398974418640137,-0.02331124246120453,0.007369032595306635,-0.025595596060156822
1706236656825235736,0.11810953915119171,9.763930320739748,-1.035139799118042,-0.025030720978975296,0.007311305031180382,-0.021924830973148346
1706236656835431014,0.10478662699460985,9.757190704345703,-1.0417152643203738,-0.025910036638379097,0.007323537953197956,-0.017328165471553802
1706236656845473588,0.10961354523897172,9.758529663085938,-1.0520946979522705,-0.026148749515414238,0.00771438330411911,-0.01275276206433773
1706236656855596754,0.10480921715497972,9.76393795013428,-1.054035782814026,-0.02625320665538311,0.008723393082618713,-0.009421785362064838
1706236656866088829,0.10643382370471954,9.761924743652344,-1.0502127408981325,-0.026729395613074303,0.010311837308108807,-0.008379699662327766
1706236656875911421,0.11032552272081377,9.754526138305664,-1.057187557220459,-0.027763087302446365,0.012226086109876633,-0.009902185760438442
1706236656886112347,0.11135221272706987,9.759905815124513,-1.0573596954345703,-0.029118316248059273,0.01401294581592083,-0.013377676717936993
1706236656896706940,0.11667931824922563,9.754820823669435,-1.0483620166778564,-0.03025391697883606,0.015155956149101257,-0.017712386325001717
1706236656906373291,0.12143287062644958,9.763607025146484,-1.047347664833069,-0.030571328476071358,0.015398305840790272,-0.021684877574443817
1706236656915772977,0.1109941154718399,9.753144264221193,-1.042436122894287,-0.029697144404053688,0.01489349640905857,-0.024180732667446136
1706236656925835884,0.10846072435379028,9.750469207763672,-1.0445826053619385,-0.02780330926179886,0.013974566012620926,-0.024536238983273506
1706236656935833217,0.11031366884708405,9.761575698852539,-1.04555881023407,-0.025685355067253113,0.012850815430283546,-0.022821631282567978
1706236656955384199,0.10120510309934617,9.748395919799805,-1.052096724510193,-0.0243277195841074,0.011650445871055126,-0.019836971536278725
1706236656956550995,0.10377408564090729,9.760932922363281,-1.0656812191009521,-0.024387137964367867,0.010557465255260468,-0.016877319663763046
1706236656965525717,0.1040860116481781,9.767699241638185,-1.067962646484375,-0.0259796641767025,0.009826777502894402,-0.015387491323053837
1706236656975506051,0.10398632287979126,9.755200386047365,-1.0639102458953857,-0.028667617589235306,0.009801541455090046,-0.016427958384156227
1706236656985315662,0.11665190011262895,9.75689220428467,-1.0643656253814697,-0.0315948948264122,0.010645916685461998,-0.020062346011400223
1706236656996252643,0.10363722592592241,9.768674850463867,-1.0545624494552615,-0.03378251567482948,0.012057996354997158,-0.025203505530953407
1706236657008173940,0.10774421691894531,9.752501487731935,-1.068416237831116,-0.03459405153989792,0.013550128787755966,-0.03017577715218067
1706236657016147014,0.10888619720935822,9.74372673034668,-1.06022846698761,-0.034086521714925766,0.014672458171844482,-0.03363247215747833
1706236657027604884,0.10803148895502092,9.76667881011963,-1.0683956146240234,-0.032817989587783813,0.014918887056410313,-0.03515399992465973
1706236657036021754,0.10833612084388733,9.7454309463501,-1.072355031967163,-0.03139808401465416,0.014046004973351955,-0.03520101308822632
1706236657046981754,0.11660990118980408,9.756900787353516,-1.0738022327423096,-0.030218729749321938,0.012373877689242363,-0.034734200686216354
1706236657058409310,0.1208566799759865,9.767712593078615,-1.0669356584548952,-0.029289117082953453,0.010540223680436611,-0.03470379114151001
1706236657065297199,0.10668527334928514,9.760281562805178,-1.0774174928665163,-0.028300737962126732,0.009303364902734756,-0.03555218130350113
1706236657076046643,0.11045411229133606,9.756922721862795,-1.0803824663162234,-0.02710334211587906,0.009287875145673752,-0.03719651699066162
1706236657086144551,0.11466726660728455,9.761637687683107,-1.0713200569152832,-0.02598903514444828,0.010499488562345505,-0.039376407861709595
1706236657096253977,0.12150680273771287,9.77446174621582,-1.059420943260193,-0.025280801579356194,0.012409767135977745,-0.04165986180305481
1706236657105471588,0.10932137817144395,9.765662193298342,-1.046919822692871,-0.02490396611392498,0.014588798396289349,-0.04315708205103874
1706236657116490810,0.10329009592533112,9.76060676574707,-1.0594426393508913,-0.024665815755724907,0.016864215955138206,-0.042725980281829834
1706236657125591347,0.10540582984685899,9.757915496826172,-1.0535540580749512,-0.02474195323884487,0.018906235694885254,-0.039817795157432556
1706236657135739495,0.11562814563512804,9.767033576965334,-1.0522487163543701,-0.025495294481515884,0.02015751600265503,-0.03501947969198227
1706236657145757088,0.11472939699888231,9.750832557678224,-1.0491797924041748,-0.02684461884200573,0.02026861533522606,-0.029615001752972603
1706236657156637495,0.1112930029630661,9.75184440612793,-1.0531901121139529,-0.02814984880387783,0.019243555143475533,-0.02479500323534012
1706236657165495199,0.1119144856929779,9.760949134826662,-1.0461385250091553,-0.02878241054713726,0.01725209318101406,-0.02126511000096798
1706236657176271680,0.12093459069728851,9.758941650390625,-1.0518791675567627,-0.028554894030094147,0.014714635908603668,-0.01919577270746231
1706236657186261032,0.10758139193058014,9.765024185180664,-1.0612242221832275,-0.027618814259767532,0.012403924018144608,-0.018404118716716766
1706236657196723013,0.10965918004512787,9.774791717529297,-1.0580188035964968,-0.026340948417782784,0.01117902621626854,-0.018711324781179428
1706236657205359662,0.1185174807906151,9.750179290771484,-1.0743153095245361,-0.02524724416434765,0.011571566574275494,-0.02011413499712944
1706236657215285643,0.1135615035891533,9.761314392089844,-1.0629755258560183,-0.024675045162439346,0.013343722559511662,-0.022655075415968895
1706236657226412439,0.11262183636426927,9.773458480834961,-1.0572288036346436,-0.024545785039663315,0.015554522164165974,-0.026110516861081123
1706236657235993032,0.12740197777748108,9.754223823547365,-1.0570200681686404,-0.024558842182159424,0.017371850088238716,-0.029699325561523438
1706236657245999236,0.11898190528154375,9.758624076843263,-1.0687148571014404,-0.02432584948837757,0.01845546066761017,-0.03237002342939377
1706236657256146199,0.11369600147008897,9.766096115112305,-1.0922138690948486,-0.02351664938032627,0.01866965927183628,-0.0337294340133667
1706236657266037402,0.1116357520222664,9.748538017272951,-1.0929186344146729,-0.022251363843679428,0.01804642751812935,-0.03467175364494324
1706236657275712365,0.11812972277402879,9.762388229370117,-1.099308729171753,-0.021130165085196495,0.016812726855278015,-0.036852460354566574
1706236657285607162,0.11075665056705475,9.773193359375,-1.0893541574478152,-0.02070407196879387,0.015331055037677288,-0.04137803241610527
1706236657296128884,0.1242649257183075,9.781951904296875,-1.086869478225708,-0.02106044627726078,0.014326442033052444,-0.047902245074510574
1706236657305789588,0.11160650849342346,9.762347221374513,-1.0702446699142458,-0.021843889728188515,0.014759978279471397,-0.0547231063246727
1706236657315921476,0.10548578202724457,9.746822357177734,-1.0780792236328125,-0.022630074992775917,0.016856050118803978,-0.059636395424604416
1706236657325725458,0.1042735055088997,9.769434928894045,-1.0572010278701784,-0.023401034995913506,0.019500795751810074,-0.0610012412071228
1706236657335985699,0.10281401872634888,9.762633323669435,-1.0402384996414187,-0.024554818868637085,0.021180851384997368,-0.058246441185474396
1706236657346070087,0.1097918450832367,9.766380310058594,-1.0495537519454958,-0.02639586292207241,0.02131846733391285,-0.05164869874715805
1706236657355863069,0.1125832423567772,9.751519203186037,-1.0401464700698855,-0.028701242059469223,0.020318685099482536,-0.0421869270503521
1706236657365439847,0.1103809103369713,9.761277198791506,-1.029088854789734,-0.03076489269733429,0.01875416561961174,-0.03147979825735092
1706236657376242236,0.1124342679977417,9.767697334289553,-1.0266880989074707,-0.0318697914481163,0.017019426450133324,-0.021161995828151703
1706236657380955717,0.12263287603855133,9.76735019683838,-1.025132656097412,-0.03168642520904541,0.015584971755743027,-0.012236765585839748
1706236657396418754,0.11522771418094635,9.758925437927248,-1.035573959350586,-0.03024820238351822,0.014992574229836464,-0.005136201158165932
1706236657400739828,0.11792011559009552,9.764000892639162,-1.044361472129822,-0.02784894034266472,0.015394610352814198,-0.00018784921849146485
1706236657415011365,0.11974256485700609,9.762997627258303,-1.0459572076797488,-0.025038354098796844,0.016403740271925926,0.0021485858596861362
1706236657424785680,0.10627584159374237,9.783230781555178,-1.0295932292938232,-0.022493572905659676,0.01756950281560421,0.0016504874220117927
1706236657434994662,0.10433652997016907,9.75115489959717,-1.0222625732421875,-0.020906668156385422,0.018795650452375412,-0.0009628828847780824
1706236657444724328,0.10483488440513611,9.760591506958008,-1.0223019123077393,-0.02089708112180233,0.02000976726412773,-0.003924008458852768
1706236657455521810,0.10599642992019653,9.766321182250977,-1.0063747167587282,-0.02268119715154171,0.020756619051098824,-0.005259896162897348
1706236657465104791,0.11525066941976549,9.768335342407227,-1.01028048992157,-0.025754956528544426,0.02066364698112011,-0.0037284079007804394
1706236657474842717,0.10793960094451904,9.759539604187013,-0.9943560957908631,-0.02901989407837391,0.01995551586151123,0.0008554870146326721
1706236657494707624,0.10781100392341614,9.764294624328615,-1.0132064819335938,-0.03228225186467171,0.01840456761419773,0.015299638733267784
1706236657504583069,0.10775056481361389,9.762948989868164,-1.0199856758117676,-0.0319703184068203,0.01789960451424122,0.02161954529583454
1706236657515217402,0.10497087240219116,9.773397445678711,-0.9999371170997621,-0.031046953052282333,0.017676610499620438,0.025131508708000183
1706236657524462236,0.11296947300434113,9.765933036804201,-0.994584619998932,-0.0301518477499485,0.017895426601171494,0.02570052072405815
1706236657534565958,0.12769620120525363,9.746747970581055,-1.0246971845626833,-0.029532499611377716,0.018576698377728462,0.02458624355494976
1706236657544287198,0.0999567434191704,9.77710819244385,-1.0173116922378542,-0.02889285981655121,0.01929938979446888,0.02311263047158718
1706236657555494606,0.11428114771842957,9.780521392822266,-1.0380277633666992,-0.027938341721892357,0.019661299884319305,0.021512310951948166
1706236657565051087,0.11232002079486847,9.7518310546875,-1.0427827835083008,-0.026884447783231735,0.019924089312553406,0.019084250554442406
1706236657574719458,0.0911838933825493,9.775077819824219,-1.032677173614502,-0.02622685581445694,0.020494477823376656,0.01504326332360506
1706236657585120402,0.09703388810157776,9.759575843811037,-1.0414205789566042,-0.02651435323059559,0.021239882335066795,0.009325976483523846
1706236657595618365,0.09390963613986969,9.771718025207521,-1.0353058576583865,-0.028267323970794678,0.021790746599435806,0.0028302562423050404
1706236657610630902,0.08723685145378113,9.76835823059082,-1.0463733673095703,-0.031600166112184525,0.022003067657351494,-0.0031550347339361906
1706236657615122939,0.10082063823938371,9.749135017395021,-1.0596910715103152,-0.03601020574569702,0.021917643025517464,-0.007799661718308926
1706236657626691884,0.09738953411579132,9.755896568298342,-1.0643211603164675,-0.0405222550034523,0.021389158442616463,-0.011258658021688461
1706236657634982087,0.12050436437129974,9.753866195678711,-1.0656446218490603,-0.0439007431268692,0.020013276487588882,-0.014467800967395306
1706236657644914402,0.10705430805683136,9.770040512084961,-1.0363270044326784,-0.04498009756207466,0.017693540081381798,-0.018173348158597946
1706236657655628439,0.11657296866178514,9.75753402709961,-1.0130912065505984,-0.04319744557142258,0.015070054680109024,-0.02181960456073284
1706236657664415217,0.11959641426801683,9.744993209838867,-0.972994327545166,-0.03895506262779236,0.013029228895902634,-0.02317870408296585
1706236657674540272,0.1396045684814453,9.767892837524414,-0.9351132512092591,-0.03325066342949867,0.011884227395057678,-0.019080033525824547
1706236657688025347,0.13291144371032715,9.768205642700195,-0.9325628876686097,-0.026908360421657562,0.011478445492684841,-0.0068806870840489864
1706236657695884032,0.12893319129943848,9.759417533874513,-0.931576430797577,-0.020404767245054245,0.011829812079668045,0.013827724382281303
1706236657704624939,0.12546348571777344,9.77899169921875,-0.9318800568580629,-0.014335697516798973,0.013091468252241611,0.040260665118694305
1706236657715233235,0.1268947422504425,9.768192291259766,-0.9414522051811219,-0.00959191657602787,0.01524227112531662,0.06728154420852661
1706236657725426532,0.11845596879720689,9.781352996826172,-0.9348874092102051,-0.006947110872715712,0.018119383603334427,0.08956637978553772
1706236657736282495,0.13204322755336764,9.776931762695312,-0.9230390191078187,-0.0066170827485620975,0.021479962393641472,0.10374785214662552
1706236657744771124,0.14123727381229403,9.756628036499023,-0.8923234343528749,-0.008016078732907772,0.024900976568460464,0.10970982909202576
1706236657754983495,0.15448397397994995,9.767765045166016,-0.8791539669036865,-0.009715516120195389,0.027597956359386444,0.11054067313671112
1706236657765330939,0.15796813368797302,9.770451545715334,-0.8731718063354492,-0.009892557747662067,0.028695808723568916,0.11092682182788849
1706236657774547717,0.1152828186750412,9.758973121643068,-0.8788931965827943,-0.007429173216223717,0.027940426021814346,0.11466874182224274
1706236657785110291,0.15878334641456604,9.80659294128418,-0.9009062051773071,-0.0029256970155984163,0.026016462594270706,0.12275970727205276
1706236657795195309,0.12775862216949463,9.733011245727539,-0.9105982184410096,0.0017621704610064626,0.02419532835483551,0.13306598365306854
1706236657807840291,0.11296947300434113,9.774969100952148,-0.9957235455513002,0.004862579982727766,0.023282116279006004,0.14132213592529297
1706236657814714606,0.11694131791591644,9.788068771362305,-0.962896764278412,0.005118686705827713,0.023051271215081215,0.14265137910842896
1706236657825347772,0.12383055686950684,9.72090816497803,-0.9629871845245361,0.0019444559002295136,0.023010367527604103,0.13392579555511475
1706236657834490069,0.11794947832822801,9.762121200561523,-0.9986854791641235,-0.003993593156337738,0.022562405094504356,0.11603762209415436
1706236657844494180,0.12368042767047882,9.79144287109375,-0.9776061177253724,-0.010910716839134693,0.02097119390964508,0.09333012253046036
1706236657854521624,0.11761330813169481,9.767186164855959,-0.9963334798812866,-0.016892902553081512,0.01864643022418022,0.07090552896261215
1706236657864966291,0.10128696262836456,9.766200065612795,-1.022813677787781,-0.02083970233798027,0.01720232516527176,0.05251569673418999
1706236657874823828,0.11408644169569017,9.729432106018068,-1.0258748531341553,-0.022878272458910942,0.0174318328499794,0.03940078988671303
1706236657890461698,0.10524700582027435,9.774344444274904,-1.0439964532852175,-0.02394658885896206,0.018315577879548073,0.030310479924082756
1706236657895287439,0.1037474349141121,9.765265464782717,-1.068267822265625,-0.024954000487923622,0.018413662910461426,0.022768661379814148
1706236657904990217,0.09703078866004944,9.737588882446289,-1.0647478103637695,-0.02642844431102276,0.01739078015089035,0.014384370297193527
1706236657915322606,0.10885184258222581,9.775787353515625,-1.0967046022415163,-0.028560569509863853,0.015705835074186325,0.003686323529109359
1706236657925793050,0.10662207007408142,9.747779846191406,-1.1062240600585938,-0.031111765652894974,0.013860480859875679,-0.009628959000110626
1706236657934776883,0.09469151496887207,9.756201744079592,-1.0949516296386719,-0.03348468616604805,0.012317625805735588,-0.024957485496997833
1706236657945924476,0.10068196803331377,9.768065452575685,-1.1085951328277588,-0.03524646535515785,0.011359209194779396,-0.040902577340602875
1706236657954947476,0.10393643379211426,9.758595466613771,-1.10059130191803,-0.03642130643129349,0.011098712682723999,-0.055489473044872284
1706236657964555235,0.09675865620374681,9.765375137329102,-1.1163090467453005,-0.03719237074255943,0.011638587340712547,-0.06697270274162292
1706236657974904569,0.09152697771787645,9.76438617706299,-1.1113030910491943,-0.03772580251097679,0.012920411303639412,-0.07462932914495468
1706236657985003069,0.10438232868909837,9.746483802795412,-1.1087989807128906,-0.03826949745416641,0.014578578993678093,-0.07885390520095825
1706236657995344846,0.09058143943548204,9.756978988647461,-1.121673583984375,-0.03900925815105438,0.01592138223350048,-0.08065801113843918
1706236658005403828,0.10199849307537079,9.766438484191896,-1.1080511808395388,-0.039896853268146515,0.016260512173175812,-0.08117017894983292
1706236658015167032,0.10232830047607422,9.743827819824219,-1.1107825040817263,-0.040716417133808136,0.01549249142408371,-0.08128038793802261
1706236658025592050,0.10100307315587999,9.770140647888185,-1.1155875921249392,-0.04115668311715126,0.014074011705815792,-0.08138546347618103
1706236658042776643,0.10270027816295624,9.750607490539553,-1.113582253456116,-0.04095503315329552,0.012588368728756905,-0.08154286444187164
1706236658054836254,0.11656559258699419,9.7526330947876,-1.1113002300262451,-0.03848981112241745,0.010990269482135773,-0.08223482966423035
1706236658065023309,0.10653678327798845,9.767799377441406,-1.098412871360779,-0.03622366487979889,0.0108978021889925,-0.08273249864578247
1706236658074702606,0.10517374426126481,9.758381843566896,-1.1281802654266357,-0.033450376242399216,0.011153683997690678,-0.0829278901219368
1706236658086856013,0.10533288866281511,9.759082794189453,-1.1279355287551882,-0.03081330843269825,0.011817376129329205,-0.08274437487125397
1706236658094580328,0.10518928617239,9.745565414428711,-1.118211030960083,-0.029092293232679367,0.0127381831407547,-0.08283096551895142
1706236658104546902,0.11405530571937561,9.752323150634766,-1.117878079414368,-0.02864629030227661,0.013354940339922905,-0.08388951420783997
1706236658115823031,0.12303473055362701,9.755025863647461,-1.1025381088256836,-0.02910356968641281,0.013057910837233067,-0.0857442170381546
1706236658125427624,0.13134992122650146,9.749962806701662,-1.0951619148254395,-0.02943015657365322,0.011739575304090977,-0.0872851014137268
1706236658135360013,0.13299763202667236,9.762089729309084,-1.0773023366928103,-0.028399238362908363,0.009885245934128761,-0.08701881021261215
1706236658144750180,0.12625080347061157,9.764488220214844,-1.0785735845565798,-0.025310607627034187,0.008296958170831203,-0.08373034000396729
1706236658155098606,0.13542164862155917,9.768835067749023,-1.0749686956405642,-0.020470816642045975,0.007823256775736809,-0.07710585743188858
1706236658165972568,0.1384984254837036,9.76007080078125,-1.0711227655410769,-0.014933023601770401,0.00898804608732462,-0.06801743060350418
1706236658176224031,0.1306075304746628,9.7681884765625,-1.0811640024185183,-0.009781553409993649,0.01161716878414154,-0.05820116773247719
1706236658185607087,0.13773079216480258,9.756335258483888,-1.069946885108948,-0.005748276133090258,0.014890845865011215,-0.04956639185547829
1706236658194899550,0.12789957225322726,9.75027084350586,-1.071840763092041,-0.003212937153875828,0.017710154876112938,-0.0434686653316021
1706236658205085013,0.1391696482896805,9.776270866394045,-1.071800947189331,-0.002209551865234971,0.019149553030729294,-0.04023778811097145
1706236658214719791,0.1418558657169342,9.748255729675295,-1.0657209157943728,-0.0023650256916880608,0.018997827544808388,-0.039281513541936874
1706236658230800031,0.13215786218643188,9.760054588317873,-1.0540924072265625,-0.0029611410573124886,0.017762264236807823,-0.0394865944981575
1706236658235239439,0.15692707896232605,9.749614715576172,-1.0654574632644656,-0.003250555833801627,0.016014335677027702,-0.0395832434296608
1706236658244797865,0.13884294033050537,9.754659652709961,-1.0517524480819704,-0.002692685229703784,0.014051172882318497,-0.038633622229099274
1706236658256261272,0.1498727798461914,9.744540214538576,-1.0569373369216921,-0.0010536509798839688,0.012008309364318848,-0.036391109228134155
1706236658264939846,0.14318928122520447,9.754352569580078,-1.0645138025283816,0.0014339532935991883,0.00995204783976078,-0.03324147313833237
1706236658275577291,0.13768047094345093,9.762779235839844,-1.0652509927749636,0.004112493712455034,0.00804799422621727,-0.030038079246878624
1706236658284604328,0.14962296187877658,9.760406494140625,-1.0685088634490967,0.006210592575371265,0.006772050634026527,-0.027831843122839928
1706236658294609494,0.1447630226612091,9.761752128601076,-1.0592570304870605,0.007272214628756046,0.0067139253951609135,-0.027325937524437904
1706236658305209754,0.14291712641716003,9.755678176879883,-1.054469704627991,0.007396053522825241,0.008043809793889523,-0.028387511149048805
1706236658315424661,0.14190007746219638,9.762761116027834,-1.05245578289032,0.006966476794332266,0.01029135100543499,-0.030043508857488632
1706236658325224809,0.14833830296993258,9.761743545532227,-1.0624641180038454,0.006310376338660717,0.01268785260617733,-0.031098822131752968
1706236658336051513,0.14728374779224399,9.761384010314943,-1.04866623878479,0.005712102632969618,0.014652016572654247,-0.03091309778392315
1706236658345702587,0.14550222456455233,9.76611328125,-1.0452220439910889,0.005465313792228699,0.01597566530108452,-0.029523510485887527
1706236658356291679,0.1408643871545792,9.747212409973146,-1.0359164476394656,0.005685526877641678,0.016677584499120712,-0.027135994285345078
1706236658365455272,0.15877610445022583,9.762732505798342,-1.0368174314498904,0.006226407829672098,0.01673554629087448,-0.023807717487215996
1706236658375459939,0.1491135060787201,9.757009506225586,-1.035888433456421,0.006975606549531221,0.01609092950820923,-0.019625764340162277
1706236658385295254,0.1479795277118683,9.762683868408203,-1.028245806694031,0.008006192743778229,0.014945902861654758,-0.014935614541172981
1706236658395713235,0.15660010278224948,9.757993698120117,-1.02767288684845,0.009307012893259525,0.013783514499664307,-0.010231740772724152
1706236658404677087,0.1530565619468689,9.754246711730959,-1.0153473615646365,0.010709748603403568,0.013008186593651772,-0.005846569314599037
1706236658416797976,0.1688174605369568,9.755612373352053,-1.0061900615692139,0.012158691883087158,0.012654365971684456,-0.0017270566895604134
1706236658424860142,0.1799631416797638,9.757914543151857,-0.9952412843704224,0.013941115699708462,0.012464574538171291,0.002603356959298253
1706236658434877013,0.18494445085525513,9.775828361511232,-0.9892271161079408,0.016715960577130318,0.012309139594435692,0.00782128144055605
1706236658444910235,0.17525061964988708,9.768036842346193,-0.9815030694007875,0.02109082043170929,0.01253514364361763,0.014394130557775497
1706236658458408383,0.18159992992877963,9.769678115844727,-0.9696938991546631,0.02692338451743126,0.013723580166697502,0.02232516184449196
1706236658464617605,0.16887192428112033,9.767666816711428,-0.977920949459076,0.0331433042883873,0.01604148931801319,0.031180737540125847
1706236658474684568,0.15793371200561523,9.758880615234375,-0.9828322529792787,0.038201432675123215,0.018953634425997734,0.04010368883609772
1706236658484881161,0.15327323973178866,9.764928817749023,-0.9720358252525331,0.04059932753443718,0.021496932953596115,0.047872330993413925
1706236658494854365,0.153865247964859,9.77575206756592,-0.9793421030044556,0.039425063878297806,0.022890277206897736,0.053415317088365555
1706236658504849828,0.1474471837282181,9.765619277954102,-0.9814414978027344,0.03483616188168526,0.023099470883607864,0.056351251900196075
1706236658514839476,0.15000320971012118,9.762917518615724,-0.985924243927002,0.028024019673466682,0.02268666960299015,0.056913942098617554
1706236658525104735,0.16067126393318176,9.75619125366211,-0.9871622323989868,0.02071741782128811,0.022077560424804688,0.05560168996453285
1706236658534858753,0.1612799018621445,9.773369789123537,-0.977891206741333,0.014709609560668468,0.021280581131577492,0.05306332930922508
1706236658557574846,0.1467012315988541,9.768300056457521,-0.9898184537887573,0.010887832380831242,0.019434046000242233,0.04790068790316582
1706236658567710235,0.14703340828418734,9.767636299133303,-1.0030429363250732,0.012292874976992607,0.018981650471687317,0.04663471877574921
1706236658575507494,0.15179537236690524,9.765594482421875,-1.0036123991012575,0.013975203968584538,0.019075673073530197,0.04577282816171646
1706236658585494568,0.1403537392616272,9.763566970825195,-1.008943796157837,0.01475594937801361,0.019613392651081085,0.04413953423500061
1706236658595507865,0.14712005853652954,9.755147933959961,-1.009233355522156,0.014213242568075657,0.020237095654010773,0.04091872274875641
1706236658604961494,0.14295957982540133,9.774062156677248,-1.0216344594955447,0.01250448077917099,0.02048211172223091,0.036100078374147415
1706236658614947402,0.1573932319879532,9.761245727539062,-1.0302995443344118,0.010206939652562141,0.020179426297545433,0.03017895482480526
1706236658625393568,0.14033703505992892,9.754142761230469,-1.0278288125991824,0.008149463683366776,0.019545938819646835,0.023662665858864784
1706236658635795383,0.16071732342243197,9.76933479309082,-1.0191829204559326,0.007029585540294647,0.01877645216882229,0.017042968422174454
1706236658644684587,0.15573121607303622,9.760895729064943,-1.0297089815139773,0.007168028503656387,0.017944656312465668,0.011054771021008492
1706236658654718124,0.1366013437509537,9.766289710998537,-1.032611608505249,0.008489931933581829,0.0172469113022089,0.0064595723524689674
1706236658665012087,0.1530670672655106,9.765276908874513,-1.0337916612625124,0.010383229702711105,0.01693933643400669,0.003479626029729843
1706236658675734513,0.15375255048274997,9.771051406860352,-1.0563106536865234,0.011935828253626823,0.01716691628098488,0.0015998483868315816
1706236658684777846,0.15645936131477356,9.768360137939453,-1.0491447448730469,0.01271157804876566,0.017970377579331398,-0.00022401902242563665
1706236658694620605,0.14843140542507174,9.763959884643555,-1.0481605529785156,0.012964935041964054,0.01925439015030861,-0.003023293102160096
1706236658705646346,0.1524835228919983,9.761265754699709,-1.060054659843445,0.013088543899357319,0.020666062831878662,-0.00713117141276598
1706236658714544439,0.15527923405170443,9.760250091552734,-1.0468218326568604,0.013237248174846172,0.021636255085468292,-0.012066246010363102
1706236658725388198,0.17668719589710238,9.769010543823242,-1.0525985956192019,0.013558086939156055,0.02171897329390049,-0.016928164288401604
1706236658735431142,0.16376420855522156,9.762258529663086,-1.0607080459594727,0.014528271742165089,0.020952071994543076,-0.020829083397984505
1706236658745942864,0.15957370400428772,9.764292716979982,-1.0564665794372559,0.016641972586512566,0.019802691414952278,-0.023362327367067337
1706236658754942976,0.16936250030994418,9.761950492858888,-1.0690481662750244,0.0197348203510046,0.018755925819277763,-0.02480238862335682
1706236658768170346,0.1514470875263214,9.77137851715088,-1.0704114437103271,0.02297046221792698,0.018082071095705032,-0.025866828858852386
1706236658777917087,0.14110361039638522,9.759939193725586,-1.0812722444534304,0.025272507220506668,0.01790468394756317,-0.02739768475294113
1706236658785035346,0.15835773944854736,9.75082778930664,-1.0828148126602175,0.025639593601226807,0.01812784932553768,-0.030084893107414246
1706236658795650938,0.14590024948120117,9.770077705383303,-1.0944441556930544,0.023690445348620415,0.018309127539396286,-0.0342499241232872
1706236658804662976,0.15612083673477173,9.762993812561037,-1.0877022743225098,0.02006639540195465,0.018059734255075455,-0.03976864740252495
1706236658817797790,0.15771853923797607,9.762665748596193,-1.0835931301116943,0.01607266440987587,0.017505841329693794,-0.04602360725402832
1706236658826316809,0.16522306203842163,9.749489784240724,-1.087822675704956,0.013076717965304852,0.016972413286566734,-0.05194156989455223
1706236658835816994,0.16364610195159912,9.751519203186037,-1.083020329475403,0.012082892470061779,0.016395358368754387,-0.056395821273326874
1706236658844885531,0.16297201812267306,9.756963729858398,-1.1085852384567263,0.01339129637926817,0.01536845788359642,-0.05886019393801689
1706236658855619735,0.16806925833225253,9.747162818908693,-1.110417366027832,0.01649836264550686,0.013672380708158016,-0.059886857867240906
1706236658865063716,0.15983420610427856,9.766743659973146,-1.1130129098892214,0.020391087979078293,0.01155962236225605,-0.06092146784067154
1706236658875137790,0.15904393792152405,9.764090538024904,-1.1265937089920046,0.023955585435032845,0.009699425660073757,-0.06340056657791138
1706236658885083346,0.16741999983787537,9.747211456298828,-1.1369330883026123,0.026307635009288788,0.008855483494699001,-0.06804752349853516
1706236658895320753,0.1624317914247513,9.755327224731445,-1.1439181566238406,0.027136333286762238,0.009216992184519768,-0.07490600645542145
1706236658904660475,0.1572012156248093,9.753318786621094,-1.1478170156478884,0.026753248646855354,0.01016207318753004,-0.08355250209569931
1706236658915893883,0.1497437506914139,9.755688667297365,-1.148707389831543,0.02561715617775917,0.010892488993704319,-0.09315323829650879
1706236658925469957,0.17091429233551025,9.755332946777344,-1.1504268646240234,0.023995868861675262,0.011036780662834644,-0.10258010774850845
1706236658934620216,0.15146593749523166,9.748249053955078,-1.1334638595581055,0.022197648882865906,0.010645469650626183,-0.11062126606702805
1706236658945023438,0.15742167830467224,9.744182586669922,-1.1231229305267334,0.020659059286117554,0.009847046807408333,-0.11607515066862106
1706236658955316957,0.1639053970575333,9.763429641723633,-1.1268045902252197,0.01963319070637226,0.008689875714480877,-0.11789894104003906
1706236658964969198,0.18078044056892395,9.757023811340334,-1.120114803314209,0.019275693222880363,0.00744013674557209,-0.11573494970798492
1706236658975014790,0.1720741838216782,9.747215270996094,-1.1075438261032107,0.020009122788906097,0.006661341059952974,-0.11026781052350998
1706236658985606809,0.17188705503940585,9.746545791625977,-1.0993800163269043,0.02225399762392044,0.006610903423279524,-0.10276789218187332
1706236658994850661,0.1750592589378357,9.750558853149414,-1.0874174833297732,0.025807902216911316,0.00688405055552721,-0.09433315694332123
1706236659004946864,0.17724180221557617,9.744823455810547,-1.0881085395812988,0.02985455095767975,0.006871004123240709,-0.08560245484113693
1706236659015017716,0.17474825680255893,9.74515151977539,-1.079618573188782,0.03352590277791023,0.0062475954182446,-0.07695527374744415
1706236659025434327,0.1750142723321915,9.75896739959717,-1.0706357955932617,0.03626551479101181,0.00507931737229228,-0.06872051954269409
1706236659036883494,0.17294180393218994,9.75356674194336,-1.0583248138427734,0.03784389793872833,0.003847419284284115,-0.06106730177998543
1706236659045528512,0.17492412030696872,9.760304450988771,-1.0454376935958865,0.03829794004559517,0.003283623605966568,-0.0537838451564312
1706236659054700698,0.1549757421016693,9.747089385986328,-1.0276015996932986,0.03779800981283188,0.0038611027412116528,-0.04626505449414253
1706236659070975438,0.16268238425254822,9.749469757080078,-1.0409156084060671,0.03638497740030289,0.005367666482925415,-0.03784056752920151
1706236659075838179,0.16033126413822177,9.750469207763672,-1.0256105661392214,0.033964935690164566,0.007009623572230339,-0.02838819846510887
1706236659084732753,0.17670601606369019,9.760948181152344,-1.0382585525512695,0.030769318342208862,0.008045014925301075,-0.018664507195353508
1706236659095004216,0.17284394800662997,9.743059158325195,-1.0351792573928835,0.027682406827807426,0.0083066551014781,-0.009977699257433414
1706236659105037994,0.18613122403621676,9.755208969116211,-1.0308808088302615,0.02593034878373146,0.00802764855325222,-0.003559025702998042
1706236659115745438,0.17762793600559237,9.754182815551758,-1.027536392211914,0.026413310319185257,0.00746415788307786,5.097380199003965e-05
1706236659124977123,0.18345494568347934,9.759556770324709,-1.011706829071045,0.029208166524767876,0.006919665727764368,0.0013555665500462055
1706236659135467494,0.1762029975652695,9.74876117706299,-1.0153726339340212,0.033512745052576065,0.0067601860500872135,0.001717537990771234
1706236659145114457,0.1747402846813202,9.747050285339357,-0.990315318107605,0.03800457715988159,0.007078017573803663,0.00275465939193964
1706236659155189938,0.17695987224578857,9.756818771362305,-0.993927299976349,0.04138840734958649,0.007531862240284681,0.005755611229687929
1706236659166511698,0.17043270170688632,9.754454612731935,-0.9836660623550415,0.04288576543331146,0.007750798482447863,0.011314562521874905
1706236659175407698,0.1785224974155426,9.75851345062256,-0.9925312995910645,0.04244852066040039,0.007756090257316828,0.01908494159579277
1706236659187866160,0.17594109475612643,9.757488250732422,-0.9987381100654603,0.040665220469236374,0.007866310887038708,0.027751456946134567
1706236659199847864,0.1701077073812485,9.752758979797365,-0.994290053844452,0.03843757137656212,0.008337489329278469,0.03543248772621155
1706236659207704864,0.16191355884075168,9.761507987976076,-0.9931102395057679,0.036441728472709656,0.009151652455329895,0.04052238166332245
1706236659215749957,0.16014623641967773,9.75577163696289,-0.9999024868011475,0.03472217544913292,0.010109835304319859,0.04244961217045784
1706236659226182179,0.1664218753576279,9.744309425354006,-0.9946969151496888,0.032884709537029266,0.010963628999888897,0.041699327528476715
1706236659234716957,0.16220225393772128,9.771986961364748,-1.0001327991485596,0.030685629695653915,0.011432168073952198,0.039312638342380524
1706236659245659827,0.18230296671390536,9.768622398376467,-1.004629969596863,0.02841074764728546,0.011542311869561672,0.03637104853987694
1706236659255688920,0.1796119213104248,9.765570640563967,-1.0126152038574219,0.026858672499656677,0.011912668123841286,0.03355629742145538
1706236659265369586,0.18566231429576877,9.760548591613771,-1.0201668739318848,0.026978012174367905,0.013167825527489185,0.030916446819901466
1706236659274913123,0.17764341831207275,9.753449440002443,-1.0283740758895876,0.0292328093200922,0.015162409283220768,0.0279899463057518
1706236659285688438,0.1933671534061432,9.759176254272461,-1.0265754461288454,0.03323006257414818,0.017024286091327667,0.02420264109969139
1706236659295450568,0.18233105540275574,9.76055908203125,-1.0275661945343018,0.03802257031202316,0.01787501387298107,0.019351836293935776
1706236659305019605,0.18292360007762912,9.754107475280763,-1.0395073890686035,0.04260404780507088,0.017450999468564987,0.013810277916491032
1706236659316401734,0.17908097803592685,9.758524894714357,-1.032001614570618,0.04610156640410423,0.01608072780072689,0.008230424486100674
1706236659324702197,0.18222776055335999,9.763614654541016,-1.0331860780715945,0.0479140467941761,0.014340740628540516,0.003208715934306383
1706236659335683623,0.17361102998256686,9.755490303039553,-1.0326272249221804,0.04791555553674698,0.012851069681346416,-0.000752231921069324
1706236659345471309,0.16327989101409912,9.761905670166016,-1.031816363334656,0.04635898396372795,0.012057478539645672,-0.003296434646472335
1706236659355482475,0.1607743501663208,9.75684928894043,-1.0464246273040771,0.04350467771291733,0.012029561214148998,-0.004435338079929352
1706236659364672586,0.16053135693073275,9.755842208862305,-1.0467315912246706,0.03950556740164757,0.012505745515227318,-0.004738079383969307
1706236659374968197,0.15302957594394687,9.76293468475342,-1.0537437200546267,0.03463815525174141,0.013093858025968075,-0.005205362569540739
1706236659385143327,0.15904541313648227,9.756188392639162,-1.0571742057800293,0.029419027268886566,0.013513315469026566,-0.006775225978344679
1706236659394663216,0.15957351028919223,9.765322685241701,-1.0624244213104248,0.024517199024558067,0.013729140162467957,-0.009890535846352577
1706236659405621734,0.17416369915008545,9.759248733520508,-1.0646872520446777,0.020703889429569244,0.013884646818041801,-0.014424082823097706
1706236659414745012,0.1670523136854172,9.76736068725586,-1.0624476671218874,0.018761027604341507,0.014176251366734505,-0.019810575991868973
1706236659426359901,0.17368772625923157,9.771760940551758,-1.0603066682815554,0.01914583332836628,0.01480206660926342,-0.02520463615655899
1706236659434762920,0.16276156902313232,9.758915901184084,-1.0665396451950075,0.021603723987936974,0.015918351709842682,-0.029712198302149773
1706236659444970142,0.15495805442333224,9.753532409667969,-1.070723295211792,0.02507948875427246,0.017374439164996147,-0.032788779586553574
1706236659455282364,0.15612313151359558,9.763988494873047,-1.0755425691604616,0.02803022600710392,0.018545763567090034,-0.03456021845340729
1706236659465731697,0.15764042735099792,9.754880905151367,-1.0751835107803347,0.029124390333890915,0.018787264823913574,-0.035704053938388824
1706236659474695790,0.14824175834655762,9.756935119628906,-1.0939629077911377,0.027908630669116974,0.017946550622582436,-0.03704940527677536
1706236659485518697,0.15557846426963806,9.766420364379883,-1.091288208961487,0.02483951859176159,0.01635572873055935,-0.03933447226881981
1706236659494761457,0.15349031984806064,9.76809310913086,-1.0829480886459353,0.020875899121165276,0.01469214353710413,-0.04297833889722824
1706236659504934882,0.15037736296653748,9.766731262207031,-1.0867533683776855,0.017081698402762413,0.013795443810522556,-0.04767012596130371
1706236659514993401,0.15118622779846191,9.75962543487549,-1.0685144662857058,0.01423360500484705,0.01418078038841486,-0.052296414971351624
1706236659530573938,0.14953657984733582,9.758262634277344,-1.0645114183425906,0.012572187930345535,0.015607274137437344,-0.05538163334131241
1706236659535158864,0.14451083540916443,9.756917953491211,-1.062692642211914,0.01186416856944561,0.017205026000738144,-0.055671632289886475
1706236659545280753,0.14313802123069763,9.754220962524414,-1.0585573911666872,0.011587412096560001,0.01804235391318798,-0.05271514132618904
1706236659555814864,0.1510032564401627,9.766371726989748,-1.0609958171844482,0.011189461685717106,0.017668576911091805,-0.0471397340297699
1706236659566873808,0.13103573024272921,9.767379760742188,-1.0560339689254763,0.010362286120653152,0.01639188453555107,-0.04034676030278206
1706236659574732994,0.14349493384361267,9.766390800476076,-1.0703232288360596,0.009015634655952454,0.015123246237635612,-0.033934906125068665
1706236659584938919,0.14412553608417514,9.773802757263185,-1.0697381496429443,0.007181601598858833,0.014787650667130947,-0.02929098531603813
1706236659595654623,0.13826476037502292,9.765405654907227,-1.077174425125122,0.005151309538632631,0.015803588554263115,-0.027358736842870712
1706236659604840808,0.14680108428001404,9.768745422363281,-1.0809874534606934,0.0034096038434654474,0.017943065613508224,-0.02843349613249302
1706236659615214790,0.12617257237434387,9.768426895141602,-1.0908237695693972,0.0022665660362690687,0.02050359733402729,-0.032148949801921844
1706236659626722290,0.12978938221931458,9.762364387512209,-1.0798652172088623,0.0015472008381038904,0.022689441218972206,-0.03768608719110489
1706236659635341901,0.14260788261890414,9.766072273254396,-1.0864946842193604,0.000702126300893724,0.02392546832561493,-0.0439191497862339
1706236659644695197,0.14189976453781128,9.760355949401857,-1.0914393663406374,-0.0005231029936112463,0.02397429570555687,-0.049635566771030426
1706236659654975753,0.12286818772554399,9.746191024780273,-1.091208338737488,-0.0017794733867049217,0.0228655394166708,-0.054023269563913345
1706236659665308327,0.12733627855777743,9.764078140258789,-1.088430404663086,-0.002779158530756831,0.020709142088890076,-0.0569288432598114
1706236659675333142,0.1364393383264542,9.758705139160156,-1.0937935113906863,-0.0037471309769898653,0.017801880836486816,-0.05861448869109154
1706236659685627549,0.1316448450088501,9.767438888549805,-1.086926579475403,-0.004911768715828657,0.0148797407746315,-0.05945095047354698
1706236659695109105,0.13625916838645935,9.761054039001467,-1.0969195365905762,-0.006062786094844341,0.01287558302283287,-0.05979086086153984
1706236659705482568,0.12874409556388855,9.760720252990724,-1.0934758186340332,-0.006817517336457968,0.012336980551481247,-0.05996159836649895
1706236659717340568,0.1375415325164795,9.758334159851076,-1.0851951837539675,-0.007006964646279812,0.013101078569889069,-0.06022217124700546
1706236659726449956,0.14277644455432895,9.760716438293459,-1.0875025987625124,-0.006661726161837578,0.014466483145952225,-0.06055763363838196
1706236659735342382,0.14211931824684143,9.755620002746584,-1.0751309394836426,-0.005755873396992683,0.015656279399991035,-0.060592833906412125
1706236659745402327,0.13735564053058627,9.761359214782717,-1.0754045248031618,-0.004217321518808603,0.01617341674864292,-0.05979577824473381
1706236659755402438,0.1313505470752716,9.750208854675295,-1.0659058094024658,-0.002264684299007058,0.015886373817920685,-0.057736583054065704
1706236659765397086,0.12637816369533542,9.747207641601562,-1.0788451433181765,-0.0005725807859562337,0.014858182519674301,-0.054335374385118484
1706236659775261105,0.13980990648269653,9.751957893371584,-1.0753610134124756,7.134448242140934e-05,0.013136950321495533,-0.05009742081165314
1706236659785356845,0.12753359973430636,9.764414787292482,-1.0686533451080322,-0.000630111142527312,0.010915465652942657,-0.04599646106362343
1706236659795987475,0.12993524968624118,9.753265380859375,-1.067740321159363,-0.002324978820979595,0.008816314861178398,-0.04285363107919693
1706236659805127512,0.1276577562093735,9.761393547058107,-1.0808123350143435,-0.004440553020685911,0.007622004020959139,-0.04091041162610054
1706236659815246364,0.12913739681243896,9.768117904663086,-1.0595415830612185,-0.0065313829109072685,0.007758943364024162,-0.04002431407570839
1706236659825530179,0.13639050722122192,9.761669158935547,-1.0469490289688113,-0.00826155673712492,0.009228275157511234,-0.03973226994276047
1706236659834744679,0.13861905038356784,9.763412475585938,-1.069691300392151,-0.00927552580833435,0.011708414182066917,-0.03912900388240814
1706236659852084142,0.13829094171524048,9.769466400146484,-1.0524753332138064,-0.009214309975504875,0.014598488807678223,-0.03744882717728615
1706236659856174530,0.1383539587259293,9.764366149902344,-1.0412051677703857,-0.007950338535010815,0.017282219603657722,-0.03464768826961517
1706236659876480308,0.1361869424581528,9.758970260620117,-1.0288407802581787,-0.003153922501951456,0.020331813022494316,-0.026147395372390747
1706236659885438160,0.14718538522720337,9.760980606079102,-1.0202122926712038,-0.0007121451781131327,0.020024189725518227,-0.020116563886404037
1706236659895769179,0.13749459385871887,9.751498222351076,-1.006148934364319,0.001205998007208109,0.0185235682874918,-0.012939953245222569
1706236659905863530,0.13423246145248413,9.757546424865724,-1.0079741477966309,0.0024399524554610252,0.016313059255480766,-0.004966086708009243
1706236659916676234,0.1305488646030426,9.767024993896484,-1.0120612382888796,0.0028335019014775753,0.013985423371195793,0.0033099038992077112
1706236659925134456,0.12814693152904513,9.76768207550049,-1.0122647285461426,0.0021650821436196566,0.012248004786670208,0.011087730526924133
1706236659935112679,0.12547181546688083,9.75957775115967,-1.0106182098388672,0.00033698813058435917,0.011786047369241714,0.017350194975733757
1706236659945052123,0.1177308037877083,9.774084091186523,-1.010198473930359,-0.0025094596203416586,0.012815830297768116,0.021365879103541374
1706236659964739641,0.12883666157722473,9.763278007507326,-1.0185823440551758,-0.006040027365088463,0.014980251900851727,0.02303374744951725
1706236659966068234,0.1306138038635254,9.76397228240967,-1.021167874336243,-0.009686280973255634,0.017625821754336357,0.022709615528583527
1706236659975231753,0.12665480375289917,9.770393371582031,-1.032647252082825,-0.012641556560993195,0.020031139254570007,0.02081199176609516
1706236659984832012,0.1252305507659912,9.769710540771484,-1.0231739282608034,-0.01425179373472929,0.021700700744986534,0.017661744728684425
1706236659994888475,0.12577860057353976,9.766359329223633,-1.0355689525604248,-0.01446438580751419,0.022593282163143158,0.013634288683533669
1706236660005286271,0.13273990154266357,9.766015052795412,-1.027163863182068,-0.013740538619458675,0.022927163168787956,0.009281770326197147
1706236660014782327,0.1335298717021942,9.757237434387209,-1.0319812297821045,-0.012570517137646675,0.02283479832112789,0.00522862421348691
1706236660025916956,0.13468730449676514,9.750153541564943,-1.0398075580596924,-0.011169562116265297,0.02219039388000965,0.0019580782391130924
1706236660034768975,0.13415597379207614,9.763317108154297,-1.0459671020507812,-0.009574527852237225,0.0207119919359684,-0.000466165947727859
1706236660045554271,0.11859367042779924,9.770076751708984,-1.058688521385193,-0.00794151984155178,0.018450606614351273,-0.0025607699062675238
1706236660054724178,0.12047510594129564,9.769065856933594,-1.0535606145858767,-0.006785144098103046,0.01617845706641674,-0.0051774573512375355
1706236660065340160,0.11533801257610321,9.764014244079592,-1.0681499242782595,-0.006847755517810583,0.01496055256575346,-0.008971059694886208
1706236660075447049,0.11722207814455034,9.759959220886232,-1.0681554079055788,-0.008587010204792023,0.015272099524736404,-0.01406825240701437
1706236660085527882,0.1225082650780678,9.757575035095217,-1.05338716506958,-0.011775328777730465,0.016633033752441406,-0.020048588514328003
1706236660095185123,0.10832691192626953,9.755213737487795,-1.0481113195419314,-0.015590114519000053,0.018001006916165352,-0.025881411507725716
1706236660105326901,0.11849227547645569,9.767380714416506,-1.0470594167709353,-0.01913420297205448,0.018491534516215324,-0.030065041035413742
1706236660115444252,0.12386783212423326,9.770739555358888,-1.0428249835968018,-0.021818596869707108,0.017982397228479385,-0.031354863196611404
1706236660126385956,0.11266686767339708,9.76870346069336,-1.042408108711243,-0.023308442905545235,0.017178770154714584,-0.029474101960659027
1706236660135645512,0.10021732002496721,9.766372680664062,-1.055378317832947,-0.02364286780357361,0.016983801499009132,-0.025238554924726486
1706236660144765012,0.10566090047359467,9.76434326171875,-1.0534029006958008,-0.023540282621979713,0.017762333154678345,-0.02027275040745735
1706236660154894919,0.10855410993099213,9.77481460571289,-1.0660021305084229,-0.02402321808040142,0.01922686956822872,-0.016451578587293625
1706236660165250660,0.09783659875392914,9.761995315551758,-1.0757689476013184,-0.025611042976379395,0.020867234095931053,-0.015254761092364788
1706236660175512419,0.10871537029743195,9.764012336730959,-1.0748975276947021,-0.028110655024647713,0.022237852215766907,-0.017390845343470573
1706236660184735641,0.103981152176857,9.756610870361328,-1.078690528869629,-0.03092891164124012,0.022912906482815742,-0.02263997308909893
1706236660195289104,0.11615634709596635,9.76504421234131,-1.084353566169739,-0.0333174504339695,0.022555850446224213,-0.029913293197751045
1706236660205629141,0.1121940240263939,9.760967254638672,-1.0804617404937744,-0.034557417035102844,0.021191822364926338,-0.03770881146192551
1706236660214730104,0.10118889808654785,9.77312755584717,-1.0867681503295898,-0.0342884324491024,0.01933208853006363,-0.044674064964056015
1706236660224760567,0.10516088455915452,9.758654594421388,-1.0864058732986452,-0.03286861255764961,0.017752576619386673,-0.04996180534362793
1706236660236541215,0.09984508901834489,9.765370368957521,-1.0805379152297976,-0.03127222880721092,0.017008719965815544,-0.05333191156387329
1706236660245509715,0.11213622242212297,9.761651992797852,-1.0749148130416872,-0.03041878342628479,0.017103031277656555,-0.05491901561617851
1706236660255273030,0.1037687733769417,9.760282516479492,-1.0534446239471436,-0.030577009543776512,0.017625804990530014,-0.05479443818330765
1706236660265408197,0.10666018724441528,9.753862380981445,-1.040961503982544,-0.03138434514403343,0.0180524755269289,-0.05263792723417282
1706236660275455660,0.11929366737604143,9.7622766494751,-1.0375496149063113,-0.032244157046079636,0.017930345609784126,-0.04784305393695831
1706236660285447715,0.1141474023461342,9.761593818664553,-1.0348311662673952,-0.032539624720811844,0.01711619645357132,-0.04016115888953209
1706236660300354512,0.1178746223449707,9.760231971740724,-1.024402141571045,-0.031772181391716,0.015915021300315857,-0.030257029458880424
1706236660305057901,0.12632682919502258,9.766944885253906,-0.997801661491394,-0.029804060235619545,0.014861736446619034,-0.019377652555704117
1706236660315219252,0.12457771599292755,9.764921188354492,-0.9984925389289857,-0.026842739433050156,0.014417476020753384,-0.008432712405920029
1706236660325380030,0.11506326496601105,9.76425075531006,-1.00554096698761,-0.023303197696805,0.014810250140726566,0.002269837772473693
1706236660335855734,0.1226208508014679,9.761190414428711,-0.9952469468116761,-0.01985345222055912,0.01591985486447811,0.012378755025565624
1706236660345213234,0.1026771068572998,9.7564697265625,-0.9970458149909974,-0.01733403094112873,0.017261112108826637,0.021172011271119118
1706236660358577993,0.1076587438583374,9.755794525146484,-1.007322430610657,-0.016502872109413147,0.01816348358988762,0.027926908805966377
1706236660367801400,0.11268437653779985,9.76121711730957,-1.0287103652954102,-0.01774522103369236,0.01810886152088642,0.03205240145325661
1706236660376006141,0.10603689402341844,9.754155158996584,-1.0570757389068604,-0.02074083499610424,0.01704319193959236,0.03274470195174217
1706236660384874456,0.10084369778633118,9.759572029113771,-1.069479584693909,-0.024567635729908943,0.015355852432549,0.028881944715976715
1706236660394902530,0.10367247462272644,9.753518104553224,-1.0676310062408447,-0.028327452018857002,0.013569231145083904,0.01969859190285206
1706236660404815604,0.1049811840057373,9.749823570251467,-1.0920734405517578,-0.03150124102830887,0.012038632296025753,0.005742150358855724
1706236660415009512,0.10672885924577714,9.750845909118654,-1.093675136566162,-0.033812809735536575,0.0107950484380126,-0.011083381250500679
1706236660425036141,0.11268442124128343,9.751528739929201,-1.0971019268035889,-0.03506438806653023,0.009647421538829803,-0.028397338464856148
1706236660435116641,0.10552335530519487,9.740746498107912,-1.1006190776824951,-0.03515399247407913,0.008416500873863697,-0.044079720973968506
1706236660446011641,0.10611887276172638,9.741745948791506,-1.1048446893692019,-0.03423628211021423,0.006949075032025576,-0.056641459465026855
1706236660454956530,0.11517978459596635,9.750894546508789,-1.1035565137863161,-0.03276998922228813,0.005112414248287678,-0.06547648459672928
1706236660464945845,0.10321955382823944,9.753916740417482,-1.1097307205200195,-0.03125421702861786,0.0030881408601999283,-0.07085049897432327
1706236660475393975,0.09758579730987549,9.746146202087404,-1.0998533964157107,-0.030089644715189934,0.0014775344170629978,-0.07358274608850479
1706236660484877845,0.09839365631341936,9.762687683105469,-1.0916223526000977,-0.029736464843153954,0.0008819267968647182,-0.07452954351902008
1706236660495264567,0.11299566924571991,9.751875877380373,-1.0823551416397097,-0.030534658581018448,0.0015513498801738024,-0.07408636808395386
1706236660505044437,0.09054769575595856,9.757905960083008,-1.066472053527832,-0.03226857632398605,0.003360333852469921,-0.07206547260284424
1706236660515357882,0.10703634470701219,9.76061534881592,-1.0610905885696413,-0.034318406134843826,0.005869531538337469,-0.06798182427883148
1706236660525176197,0.11095205694437028,9.755871772766115,-1.0466258525848389,-0.03609825670719147,0.008521870709955692,-0.06148514524102211
1706236660535498919,0.10790112614631653,9.761248588562013,-1.051239252090454,-0.03707611560821533,0.010859837755560875,-0.052728526294231415
1706236660544622474,0.09860485792160034,9.75991439819336,-1.0458650588989258,-0.03689207881689072,0.012610985897481441,-0.04254855588078499
1706236660555402734,0.09887977689504625,9.748098373413086,-1.0572129487991335,-0.03579757362604141,0.01367190107703209,-0.032382551580667496
1706236660564976752,0.10611903667449951,9.756551742553711,-1.0611499547958376,-0.034596629440784454,0.013957416638731956,-0.02393411286175251
1706236660575378030,0.10455329716205597,9.744404792785646,-1.0666331052780154,-0.03396034240722656,0.013350483030080795,-0.018693236634135246
1706236660585045678,0.12322569638490678,9.758599281311037,-1.0656338930130007,-0.03388189151883125,0.011886759661138058,-0.017418300732970238
1706236660595836252,0.1222994849085808,9.75286388397217,-1.0649113655090332,-0.03365528956055641,0.009925979189574718,-0.019785938784480095
1706236660614717308,0.11113360524177551,9.754187583923342,-1.0526986122131348,-0.02978767827153206,0.007179688662290573,-0.02933136560022831
1706236660626698956,0.09120418131351471,9.723450660705568,-1.042487978935242,-0.026726486161351204,0.007228733506053686,-0.03253479301929474
1706236660635669493,0.09198512881994249,9.816892623901367,-1.0121574401855469,-0.0247663427144289,0.007783569395542145,-0.03263955935835838
1706236660645196141,0.13003267347812655,9.672490119934084,-1.0087994337081911,-0.0251566581428051,0.008416363969445229,-0.028821270912885666
1706236660654919956,0.09384284168481828,9.83172130584717,-0.9867886900901796,-0.027679739519953728,0.008912206627428532,-0.020743954926729202
1706236660664704363,0.12328597903251648,9.694623947143555,-0.9448308348655702,-0.030797412618994713,0.009085165336728096,-0.008591439574956894
1706236660676362752,0.1039811745285988,9.774342536926271,-0.9739710092544556,-0.03295986354351044,0.008923332206904888,0.007077286019921303
1706236660684951937,0.0936778336763382,9.784768104553224,-0.9895982146263124,-0.03354222699999809,0.008540341630578041,0.024904893711209297
1706236660695451882,0.10782080888748169,9.727442741394045,-0.9954369664192201,-0.03302938863635063,0.008451560512185097,0.041936345398426056
1706236660705211530,0.09790152311325073,9.777697563171388,-1.0028316974639893,-0.03246677294373512,0.009239288046956062,0.054327238351106644
1706236660714960974,0.09658990055322648,9.750414848327638,-1.0425604581832888,-0.032609667629003525,0.010702252388000488,0.059197694063186646
1706236660724931882,0.09796151518821716,9.78054428100586,-1.0734798908233643,-0.033682744950056076,0.012341721914708614,0.055369917303323746
1706236660735142660,0.09213073551654816,9.753170967102053,-1.0764820575714111,-0.03556030988693237,0.014041468501091003,0.04297468811273575
1706236660744854511,0.09119263291358948,9.771455764770508,-1.1045850515365603,-0.037932757288217545,0.015818729996681213,0.023385504260659218
1706236660755652771,0.08829093724489213,9.726888656616211,-1.0928113460540771,-0.04049534723162651,0.01734703592956066,-0.0006592845311388373
1706236660765227697,0.10110021382570268,9.767064094543459,-1.0825092792510986,-0.0429840050637722,0.017821455374360085,-0.02540382742881775
1706236660776339826,0.09615062922239305,9.72586441040039,-1.0561628341674805,-0.0450083464384079,0.016472306102514267,-0.04662448912858963
1706236660784952085,0.10661619901657104,9.748110771179201,-1.0349215269088747,-0.04603922367095947,0.013159890659153461,-0.060336410999298096
1706236660795386234,0.09579380601644517,9.737960815429688,-1.022741198539734,-0.04570244997739792,0.008395007811486721,-0.06382744759321213
1706236660804799937,0.10888336598873138,9.755164146423342,-1.0004551410675049,-0.04406419023871422,0.0031874962151050568,-0.05659881979227066
1706236660815046659,0.10647210478782654,9.762886047363281,-0.9803026914596558,-0.0415637269616127,-0.0010606070281937718,-0.040460579097270966
1706236660834702289,0.1087574139237404,9.756848335266115,-1.0059241056442263,-0.03564329072833061,-0.00155408657155931,0.004781567025929689
1706236660844888697,0.09989403188228607,9.75547981262207,-1.0077581405639648,-0.03276033699512482,0.0025713008362799883,0.025674764066934586
1706236660854646141,0.09758417308330536,9.772029876708984,-1.0222424268722536,-0.0305439792573452,0.007943274453282356,0.04005936160683632
1706236660865577104,0.10464264452457428,9.762265205383303,-1.0317103862762451,-0.029673635959625244,0.012986215762794018,0.04559895396232605
1706236660876038919,0.10850636661052704,9.768657684326172,-1.0291566848754883,-0.030380787327885628,0.016855968162417412,0.04232822358608246
1706236660884734882,0.10272641479969025,9.761600494384766,-1.0421061515808105,-0.03210939094424248,0.01936814934015274,0.032440003007650375
1706236660894882122,0.10435788333415985,9.763310432434084,-1.0532543659210205,-0.033933136612176895,0.02062675543129444,0.019242873415350914
1706236660905463734,0.10844910144805908,9.764986991882326,-1.053711533546448,-0.03517092391848564,0.02084529772400856,0.005777224898338318
1706236660915651993,0.11230102181434631,9.760313034057617,-1.0550191402435303,-0.03552249073982239,0.020329082384705544,-0.005983093287795782
1706236660925850919,0.10374649614095689,9.765040397644045,-1.0675350427627566,-0.03493575006723404,0.019436970353126526,-0.015132121741771698
1706236660935081382,0.10089247673749925,9.752228736877443,-1.0752443075180056,-0.03367619216442108,0.018446998670697212,-0.02170567959547043
1706236660944823159,0.12311577796936035,9.780936241149904,-1.0837421417236328,-0.03228962421417236,0.017526188865303993,-0.02657056599855423
1706236660955617789,0.10913269221782684,9.780247688293459,-1.0882463455200195,-0.031101766973733902,0.01703944429755211,-0.030989065766334534
1706236660975775530,0.12136083096265794,9.766763687133789,-1.0871368646621706,-0.02994106337428093,0.017668113112449646,-0.0359567254781723
1706236660977936585,0.13520610332489014,9.769801139831545,-1.084547519683838,-0.028400009498000145,0.019725121557712555,-0.04170003533363342
1706236660984799289,0.1244676783680916,9.77383041381836,-1.0720087289810183,-0.026034632697701454,0.022616634145379066,-0.04754757508635521
1706236660995428733,0.13812570273876193,9.767742156982422,-1.0627126693725586,-0.022566307336091995,0.025335237383842468,-0.05216328427195549
1706236661005482270,0.13853354752063754,9.766368865966797,-1.0488922595977783,-0.01813284493982792,0.027123814448714256,-0.05403122678399086
1706236661023562808,0.13667802512645724,9.758931159973146,-1.0325818061828613,-0.013193611055612564,0.027588987722992897,-0.05199873447418213
1706236661027236548,0.12782742083072665,9.77717399597168,-1.040844440460205,-0.008389252237975597,0.026684558019042015,-0.04571782797574997
1706236661035694678,0.12853142619132996,9.776485443115234,-1.029724359512329,-0.004556011874228716,0.024919593706727028,-0.03596559911966324
1706236661045181011,0.13254900276660922,9.784234046936037,-1.0298851728439333,-0.0024688926059752703,0.023387780413031578,-0.0245418269187212
1706236661055001715,0.13080337643623352,9.765334129333498,-1.0237882137298584,-0.0023422890808433294,0.023155778646469116,-0.013528762385249138
1706236661067784085,0.13491477072238925,9.795080184936523,-1.0356717109680176,-0.0036559938453137875,0.02453646808862686,-0.004528810270130634
1706236661077084270,0.137485533952713,9.784243583679201,-1.0326148271560671,-0.005456714425235987,0.02718091942369938,0.001545930397696793
1706236661085704159,0.135506346821785,9.781874656677248,-1.0255036354064941,-0.006796441040933132,0.030607571825385094,0.0044550360180437565
1706236661096160678,0.14164631068706515,9.767367362976076,-1.029969096183777,-0.007076576817780733,0.03416094183921814,0.004723898135125637
1706236661105068807,0.14600825309753418,9.77645778656006,-1.0141448974609375,-0.0061415634118020535,0.03681148216128349,0.0035474176984280348
1706236661114914141,0.1400194764137268,9.77241325378418,-1.018829584121704,-0.004146133083850145,0.03762595355510712,0.002372920513153076
1706236661125945752,0.14401961863040927,9.766332626342773,-1.015824794769287,-0.0014870282029733062,0.036392439156770706,0.002381026977673173
1706236661144818048,0.14233142137527466,9.767694473266602,-1.0188692808151247,0.003614174434915185,0.029760759323835373,0.007194782141596079
1706236661154881585,0.15718963742256165,9.77408218383789,-1.0232921838760378,0.00535443564876914,0.025738392025232315,0.01095251552760601
1706236661165637567,0.13942980766296387,9.772410392761232,-1.0198954343795779,0.006593313999474049,0.022413797676563263,0.014187063090503216
1706236661176710900,0.1465676724910736,9.781869888305664,-1.013770580291748,0.00751471659168601,0.020684929564595222,0.015938805416226387
1706236661184947548,0.1420561969280243,9.775465965270998,-1.0330368280410769,0.008094312623143196,0.02101280353963375,0.015970272943377495
1706236661196363678,0.15167692303657532,9.781529426574709,-1.0216858386993408,0.008211002685129642,0.023215699940919876,0.014603042975068092
1706236661205073511,0.1496507376432419,9.762608528137209,-1.0092133283615115,0.007983304560184479,0.02649121731519699,0.012388085015118122
1706236661215369641,0.14017318189144137,9.780114173889162,-0.9965403676033021,0.007753416430205107,0.0296417735517025,0.010296568274497986
1706236661234766567,0.15130560100078586,9.775733947753906,-0.989825189113617,0.008075869642198086,0.03213469684123993,0.01181112416088581
1706236661245226622,0.13817460834980014,9.77334499359131,-0.9799907207489014,0.008751405403017998,0.031518250703811646,0.01669246144592762
1706236661255512900,0.14402787387371066,9.776041984558107,-0.9716090559959413,0.009543225169181824,0.030392063781619072,0.023769214749336243
1706236661265234159,0.13232377171516418,9.76555919647217,-0.9617509245872499,0.009829355403780937,0.02926493063569069,0.03220748156309128
1706236661275255400,0.13931000232696533,9.764172554016115,-0.9652184247970581,0.009020787663757801,0.02829304151237011,0.041239283978939056
1706236661285334400,0.12636120617389682,9.764896392822266,-0.982052206993103,0.0069344607181847095,0.027239887043833733,0.05000957101583481
1706236661295928548,0.13370364904403687,9.781451225280763,-0.983348309993744,0.0038054464384913445,0.025880057364702225,0.05726409703493118
1706236661304936030,0.12118319422006608,9.764880180358888,-0.9859369993209839,9.738208609633148e-05,0.024464238435029984,0.06155970320105553
1706236661315038400,0.12135054916143419,9.764561653137209,-0.9953224062919618,-0.003741733729839325,0.023492611944675446,0.06203432008624077
1706236661325260307,0.12849162518978122,9.754098892211914,-1.0025507211685183,-0.007412795443087816,0.02301636151969433,0.05882953107357025
1706236661335839900,0.12028343230485918,9.762187004089357,-1.0011967420578005,-0.010655349120497704,0.02248578891158104,0.052847735583782196
1706236661345814104,0.1327333599328995,9.754746437072756,-0.996005654335022,-0.013146797195076942,0.021302413195371628,0.04543361812829971
1706236661364474641,0.11958782374858856,9.759828567504883,-0.9923237562179565,-0.014621603302657604,0.01931752637028694,0.03821103647351265
1706236661367189252,0.12572364509105685,9.753746986389162,-0.9955196380615234,-0.015070566907525063,0.01684124581515789,0.032742083072662354
1706236661375020622,0.12137872725725175,9.74697017669678,-0.9946894049644471,-0.014824176207184792,0.014310521073639393,0.029953360557556152
1706236661385216622,0.13029806315898898,9.74869155883789,-0.9968571662902832,-0.014346855692565441,0.011936035007238388,0.02978154830634594
1706236661397708567,0.11922723799943925,9.758829116821289,-1.0006914138793945,-0.013935212045907974,0.009719130583107471,0.03133273869752884
1706236661405582474,0.12210585176944733,9.754426002502443,-1.0066654682159424,-0.01371616031974554,0.007819714955985546,0.03332452476024628
1706236661415694807,0.11834102869033813,9.76728916168213,-1.0141057968139648,-0.013824320398271084,0.006689888425171375,0.0344960056245327
1706236661430948881,0.11402749270200731,9.767933845520021,-1.0157155990600586,-0.01442352682352066,0.006842628587037325,0.033922333270311356
1706236661435332233,0.10612826794385911,9.760520935058594,-1.0186074972152712,-0.015667365863919258,0.00854406226426363,0.03126806020736694
1706236661446640918,0.10655155777931213,9.761161804199219,-1.0106966495513916,-0.017717238515615463,0.011492202058434486,0.02693185582756996
1706236661454959252,0.10370513051748277,9.75575923919678,-1.008687973022461,-0.02064351923763752,0.014759781770408154,0.021986257284879684
1706236661465343826,0.11888711899518968,9.768274307250977,-1.0136576890945437,-0.024176232516765594,0.017280947417020798,0.017789851874113083
1706236661476012326,0.10663176327943803,9.759803771972656,-1.0029438734054568,-0.027583006769418716,0.018505094572901726,0.015367219224572182
1706236661485730974,0.10902007669210435,9.748658180236818,-1.0026870965957644,-0.030021287500858307,0.018509428948163986,0.015074815601110458
1706236661495993141,0.11472755670547485,9.751371383666992,-1.0084499120712282,-0.031094979494810104,0.017502009868621826,0.01668987050652504
1706236661507485141,0.1143239438533783,9.743293762207031,-1.0065693855285645,-0.030913928523659706,0.01551122684031725,0.019512707367539406
1706236661515895141,0.10351071506738664,9.751072883605959,-1.0247050523757937,-0.029841408133506775,0.012604627758264542,0.022448429837822914
1706236661528035789,0.10827264189720154,9.758490562438967,-1.032992243766785,-0.028470225632190704,0.009211425669491291,0.024185296148061752
1706236661535950400,0.10210122168064117,9.745361328125,-1.050047278404236,-0.027541985735297203,0.006148375105112791,0.0234234482049942
1706236661545081418,0.09421975910663605,9.755495071411133,-1.0638654232025146,-0.02764808014035225,0.004171198233962059,0.019189853221178055
1706236661555456437,0.07451163977384569,9.764262199401857,-1.0709344148635866,-0.029188314452767372,0.0035785408690571785,0.011161074042320251
1706236661565232641,0.07289976626634599,9.742708206176758,-1.1032294034957888,-0.03258272260427475,0.00429567601531744,-0.0002569749194663018
1706236661575824807,0.07860337197780609,9.75521469116211,-1.0989960432052615,-0.03810347616672516,0.005885419901460409,-0.014212297275662422
1706236661584881844,0.07467175275087358,9.748477935791016,-1.1118075847625732,-0.04530881345272064,0.007541333790868521,-0.029650771990418434
1706236661596034381,0.07780343294143677,9.738051414489748,-1.1293238401412966,-0.05292018502950668,0.008461855351924896,-0.045344285666942596
1706236661605162770,0.08103041350841522,9.766077995300295,-1.1278252601623535,-0.0594043992459774,0.008229908533394337,-0.06016024574637413
1706236661615435678,0.07753517478704454,9.75428104400635,-1.137566089630127,-0.06363322585821152,0.007111236918717623,-0.07337163388729095
1706236661626137844,0.07005744427442552,9.74787712097168,-1.1486574411392214,-0.06529507040977478,0.00597681850194931,-0.08464872092008591
1706236661664921196,0.07614383101463318,9.755302429199219,-1.1139301061630251,-0.06508203595876694,0.0050161415711045265,-0.10666682571172714
1706236661675007992,0.07663419842720032,9.760337829589844,-1.0899231433868408,-0.06583172082901001,0.004493586253374815,-0.10339950770139694
1706236661685861603,0.0737333595752716,9.754252433776857,-1.0917072296142578,-0.06592538207769394,0.00441660126671195,-0.09667825698852539
1706236661695231307,0.0691734477877617,9.75155258178711,-1.0964051485061648,-0.06531702727079391,0.005186394788324833,-0.08769506961107254
1706236661704870640,0.08036669343709947,9.773504257202148,-1.080658555030823,-0.06444593518972397,0.006719473749399185,-0.07796571403741837
1706236661715178159,0.08597494661808014,9.752246856689453,-1.0895963907241824,-0.06369045376777649,0.008737321011722088,-0.06901629269123077
1706236661727880066,0.07959162443876268,9.749574661254883,-1.099874496459961,-0.06295741349458694,0.0109282610937953,-0.06197480857372284
1706236661735005381,0.08353695273399353,9.751916885375977,-1.1000590324401855,-0.061911750584840775,0.01267809048295021,-0.05759758874773979
1706236661745044474,0.08102729171514512,9.748881340026857,-1.0925356149673464,-0.06045523285865784,0.01324430387467146,-0.05626533180475235
1706236661755202214,0.09450703859329224,9.731673240661623,-1.0950316190719607,-0.05875743180513382,0.012241557240486145,-0.05760156735777855
1706236661765989659,0.08529242128133775,9.755680084228516,-1.1126177310943604,-0.056950997561216354,0.009718460962176323,-0.060521919280290604
1706236661774979307,0.09193492680788042,9.752622604370117,-1.0975250005722048,-0.05504409968852997,0.006232708692550659,-0.06395933777093887
1706236661785136177,0.08626461774110795,9.74551773071289,-1.1030663251876833,-0.05310594290494919,0.0029028437566012144,-0.06726198643445969
1706236661796295659,0.08452972769737244,9.75062370300293,-1.1112172603607178,-0.051377251744270325,0.0007848223904147744,-0.07002393156290054
1706236661805186140,0.09438372403383256,9.760073661804201,-1.1075285673141482,-0.05015965551137924,0.000263166701188311,-0.07209768891334534
1706236661815219437,0.09611973166465759,9.748594284057617,-1.1147911548614502,-0.049516987055540085,0.0011923593701794744,-0.07369337975978851
1706236661826598881,0.09007962793111803,9.745589256286623,-1.1229707002639773,-0.04912290722131729,0.0030931190121918917,-0.07522667944431305
1706236661835715900,0.09959598630666734,9.760416030883789,-1.1119658946990967,-0.04855462163686752,0.005181803368031979,-0.07712015509605408
1706236661884933529,0.1054844856262207,9.754149436950685,-0.9611107110977173,-0.041530732065439224,0.009227607399225235,-0.06459339708089828
1706236662045730529,0.10739620774984361,9.760441780090334,-1.152827501296997,-0.025127101689577103,0.015706684440374374,-0.05829685553908348
1706236662095697029,0.11466114968061449,9.761038780212404,-1.0778067111968994,-0.03425979986786842,0.015820372849702835,-0.10987428575754166
1706236662115196474,0.11598090827465057,9.76677989959717,-1.0975725650787354,-0.03207557648420334,0.020756257697939873,-0.07925262302160263
1706236662136406881,0.10327310115098955,9.765147209167482,-1.1358829736709597,-0.02739305980503559,0.022518949583172798,-0.052371732890605927
1706236662145001270,0.09837241470813751,9.767166137695312,-1.1375858783721924,-0.02563522756099701,0.022389180958271027,-0.050393830984830856
1706236662154972825,0.10397254675626756,9.759086608886719,-1.1524741649627686,-0.025253085419535637,0.021951494738459587,-0.05748347193002701
1706236662166580196,0.10742652416229248,9.758793830871584,-1.1576408147811892,-0.02660122700035572,0.021276870742440224,-0.07152765244245529
1706236662186000122,0.11368437856435777,9.763190269470217,-1.16237211227417,-0.03218764066696167,0.01892988011240959,-0.10609814524650574
1706236662195168455,0.11882084608078003,9.753047943115234,-1.157095551490784,-0.03441580757498741,0.017479320988059044,-0.1200793907046318
1706236662207883492,0.12174470722675323,9.761525154113771,-1.1670080423355105,-0.03500361368060112,0.016144854947924614,-0.12941884994506836
1706236662215046955,0.11346924304962158,9.757474899291992,-1.1631879806518555,-0.03345772624015808,0.014995784498751163,-0.13410814106464386
1706236662227990510,0.1183765158057213,9.7456750869751,-1.1747386455535889,-0.03011487051844597,0.014000287279486656,-0.13533124327659607
1706236662235991492,0.1074887216091156,9.752087593078615,-1.1657614707946777,-0.02608969435095787,0.012965417467057705,-0.13484342396259308
1706236662245157214,0.12559752166271212,9.771313667297365,-1.1588599681854248,-0.02267306298017502,0.011692690663039684,-0.13415488600730896
1706236662255441955,0.1155018135905266,9.75138568878174,-1.1377418041229248,-0.020615236833691597,0.010450269095599651,-0.13377296924591064
1706236662265320048,0.10661596059799194,9.762157440185547,-1.1191132068634033,-0.019926341250538826,0.009837247431278229,-0.13290296494960785
1706236662275388751,0.1117902547121048,9.755041122436523,-1.1013067960739138,-0.020348433405160904,0.010109895840287209,-0.12985730171203613
1706236662285525325,0.11197061836719513,9.753664016723633,-1.086884379386902,-0.02167651802301407,0.010978632606565952,-0.12298669666051865
1706236662296536862,0.10481274127960205,9.749596595764162,-1.0692105293273926,-0.02360720746219158,0.011852024123072624,-0.11156799644231796
1706236662305188122,0.11639761179685594,9.762400627136232,-1.0551816225051882,-0.025703120976686478,0.01217176765203476,-0.09610088914632797
1706236662315403085,0.10739605873823167,9.758637428283693,-1.037407994270325,-0.027522027492523193,0.011823812499642372,-0.0779663547873497
1706236662325965640,0.09750375896692277,9.763017654418945,-1.028159022331238,-0.028792764991521835,0.011251802556216717,-0.058827221393585205
1706236662336805677,0.10501017421483995,9.761301040649414,-1.0090017318725586,-0.02966979146003723,0.011069923639297485,-0.04012554511427879
1706236662345673455,0.0946047455072403,9.752509117126467,-1.0063321590423584,-0.030642561614513397,0.011576095595955849,-0.022810811176896095
1706236662365191751,0.10908162593841553,9.761937141418459,-0.9913119673728944,-0.03419437259435654,0.013323457911610603,0.005810351576656103
1706236662375517529,0.10115187615156175,9.752140998840334,-0.9951009154319764,-0.0364244319498539,0.013597320765256882,0.016603631898760796
1706236662385716010,0.10307214409112932,9.750459671020508,-0.9987695217132568,-0.03810063377022743,0.013291534036397934,0.02498498186469078
1706236662396128584,0.11662104725837708,9.751133918762209,-1.005099177360535,-0.03868383541703224,0.01242904458194971,0.03095267526805401
1706236662405100473,0.11709274351596832,9.75583267211914,-0.9961295127868652,-0.0379231832921505,0.011060019955039024,0.03441288694739342
1706236662415120492,0.10195834189653398,9.764261245727539,-0.9923077225685121,-0.035794176161289215,0.009509218856692314,0.03553904965519905
1706236662427103936,0.11826681345701219,9.747387886047365,-0.9965737462043763,-0.03273960202932358,0.008372298441827297,0.03509700670838356
1706236662435611825,0.11577629297971727,9.748395919799805,-0.9948925971984863,-0.029577651992440224,0.008001789450645447,0.034153759479522705
1706236662445737510,0.1063760593533516,9.752792358398438,-0.9987615942955018,-0.026961883530020714,0.0081131961196661,0.03348827362060547
1706236662456110140,0.09767743945121765,9.75784683227539,-1.0042500495910645,-0.02531163953244686,0.008179503493010998,0.03330047056078911
1706236662465592455,0.11477480828762054,9.752769470214844,-1.002180576324463,-0.02501864545047283,0.008039447478950024,0.033287353813648224
1706236662475630770,0.10074529796838762,9.76119613647461,-0.9864212274551392,-0.02615971863269806,0.007919756695628166,0.03305627405643463
1706236662491801566,0.1086525171995163,9.752045631408693,-0.9756054878234863,-0.028242072090506554,0.008099537342786789,0.03275731950998306
1706236662495103788,0.11062203347682953,9.755037307739258,-0.953532636165619,-0.030492054298520088,0.008650531060993671,0.0333898551762104
1706236662505717677,0.1095259413123131,9.76040554046631,-0.9332945346832275,-0.03218987584114075,0.009396995417773724,0.036489930003881454
1706236662515339510,0.09287174791097642,9.758705139160156,-0.9271535277366639,-0.03294840455055237,0.010148853063583374,0.04344375059008598
1706236662530345621,0.10333839058876038,9.75462532043457,-0.9186443090438843,-0.03302626311779022,0.010866987518966198,0.05469401925802231
1706236662539779770,0.09231741726398468,9.747881889343263,-0.9331703186035156,-0.0331694670021534,0.011470393277704716,0.06918054074048996
1706236662544954473,0.10065843909978868,9.759723663330078,-0.9572116732597352,-0.034006621688604355,0.011693492531776428,0.08429276943206787
1706236662557628492,0.10179501026868822,9.757728576660156,-0.9770926833152772,-0.035629820078611374,0.011379124596714973,0.09635552763938904
1706236662565764455,0.10062464326620103,9.757421493530273,-1.0133168697357178,-0.0375797376036644,0.010772783309221268,0.10164565593004227
1706236662575047881,0.10564685612916948,9.754056930541992,-1.0368402004241943,-0.03915778547525406,0.010301795788109303,0.09756946563720703
1706236662585158140,0.12387312203645708,9.75275993347168,-1.0628163814544678,-0.039726827293634415,0.010154051706194878,0.08343259245157242
1706236662595043233,0.12026841193437578,9.75175189971924,-1.0838401317596436,-0.03871334716677666,0.010170414112508297,0.060607798397541046
1706236662605160603,0.10923287272453308,9.750085830688477,-1.0948311090469363,-0.03579803556203842,0.010036504827439785,0.03210710361599922
1706236662615673621,0.1164446473121643,9.741697311401367,-1.1200366020202637,-0.03144635260105133,0.009470713324844837,0.0016877588350325823
1706236662625164103,0.10702794790267944,9.75621223449707,-1.1192463636398318,-0.026912808418273926,0.008319084532558918,-0.027196310460567474
1706236662636011603,0.10923829674720764,9.75388813018799,-1.1495966911315918,-0.023548129945993423,0.00674428278580308,-0.05220356956124306
1706236662645044658,0.11683348566293718,9.754271507263185,-1.1680123805999756,-0.022130101919174194,0.005313232075423002,-0.07255405187606812
1706236662663414399,0.10717263072729112,9.746212959289553,-1.192123055458069,-0.022572927176952362,0.004598725121468306,-0.08912791311740875
1706236662665600936,0.12390398234128953,9.749932289123537,-1.1984014511108398,-0.0240930188447237,0.004670736845582724,-0.1038816049695015
1706236662675899121,0.10565840452909471,9.761079788208008,-1.197777509689331,-0.02569269947707653,0.00516901072114706,-0.11858391761779785
1706236662685906344,0.12321176379919054,9.746549606323242,-1.1814192533493044,-0.026631321758031845,0.005796647630631924,-0.13359284400939941
1706236662696633029,0.13397501409053805,9.759065628051758,-1.1751372814178467,-0.02653517760336399,0.006476231385022402,-0.14746379852294922
1706236662705883862,0.14018879830837253,9.756686210632326,-1.1630660295486452,-0.025063293054699898,0.0071887061931192875,-0.15770742297172546
1706236662715525251,0.12340570986270905,9.747561454772951,-1.1524325609207156,-0.021887095645070076,0.00791869219392538,-0.1621723771095276
1706236662726132288,0.12933172285556796,9.753616333007812,-1.1342369318008425,-0.017312733456492424,0.008554553613066673,-0.1600227952003479
1706236662745712603,0.12230761349201202,9.758299827575685,-1.1072391271591189,-0.008613300509750843,0.008655963465571404,-0.1390015035867691
1706236662755689214,0.11626432836055756,9.757282257080078,-1.089867353439331,-0.006542543414980173,0.008190431632101536,-0.12339790165424347
1706236662765551473,0.11931930482387543,9.763325691223146,-1.0542871952056885,-0.0066253854893147945,0.007923401892185211,-0.10657195746898651
1706236662775691584,0.10395513474941254,9.76362419128418,-1.0357246398925781,-0.008830307051539421,0.008346464484930038,-0.08923690021038055
1706236662786011158,0.11496377736330034,9.768712997436523,-1.0389643907547,-0.012725155800580978,0.009737478569149971,-0.07126932591199875
1706236662795162862,0.11594765633344652,9.755510330200195,-1.019218921661377,-0.017525024712085724,0.012015004642307758,-0.05264562368392944
1706236662805328343,0.11119765788316728,9.767959594726562,-0.999714732170105,-0.022162696346640587,0.01467656809836626,-0.03405222296714783
1706236662815445677,0.11730965971946716,9.76488780975342,-0.9874778985977173,-0.02563486248254776,0.01704368367791176,-0.016354398801922798
1706236662825932936,0.12083082646131517,9.766568183898928,-0.9793902039527894,-0.02739359624683857,0.01871410757303238,3.605994425015524e-05
1706236662835026473,0.10909098386764526,9.766226768493654,-0.9844301342964173,-0.027416864410042763,0.01969342678785324,0.01499862503260374
1706236662845086029,0.11846928298473358,9.762850761413576,-0.979730486869812,-0.02617962658405304,0.020172931253910065,0.0281963050365448
1706236662855334380,0.11683565378189087,9.760144233703615,-0.9832159876823426,-0.024467691779136658,0.02029070258140564,0.038958512246608734
1706236662865789380,0.12273068726062775,9.763194084167482,-0.9920429587364198,-0.022910362109541893,0.020046325400471687,0.04659763723611832
1706236662875816640,0.11524599045515062,9.769268035888672,-0.9888786673545839,-0.02171771042048931,0.019459979608654976,0.05072089657187462
1706236662885871640,0.1165226772427559,9.760156631469727,-0.9912759065628052,-0.020875586196780205,0.01876349188387394,0.051441118121147156
1706236662896412806,0.11831033229827881,9.774669647216797,-1.002875804901123,-0.020395774394273758,0.018305953592061996,0.04944884404540062
1706236662905488973,0.11408378183841705,9.762200355529787,-1.0050890445709229,-0.02030641958117485,0.01834895834326744,0.04569334164261818
1706236662915659992,0.11595156788825989,9.769959449768068,-1.016729235649109,-0.020572565495967865,0.018955282866954803,0.04092608392238617
1706236662925772899,0.12066113948822021,9.765603065490724,-1.031552791595459,-0.02108464576303959,0.019944308325648308,0.03548843041062355
1706236662935143103,0.13077788054943087,9.768312454223633,-1.054396152496338,-0.021557018160820007,0.020998867228627205,0.029215872287750244
1706236662945550436,0.13614904880523682,9.770730018615724,-1.0870616436004639,-0.02141568809747696,0.021867895498871803,0.02134867198765278
1706236662955792547,0.14047737419605258,9.751184463500977,-1.1066366434097292,-0.0199606753885746,0.02240046299993992,0.010652021504938602
1706236662965299417,0.1425670236349106,9.768774032592773,-1.1254211664199831,-0.016775256022810936,0.022387275472283363,-0.004012006800621748
1706236662975868195,0.14202842116355896,9.75700092315674,-1.133239507675171,-0.01204120833426714,0.021619196981191635,-0.02283599227666855
1706236662985919306,0.14797762036323547,9.766080856323242,-1.113478183746338,-0.006498539820313454,0.02018883265554905,-0.044449128210544586
1706236662995028010,0.14184510707855225,9.770129203796388,-1.1181958913803103,-0.001101901987567544,0.01856228895485401,-0.06588921695947647
1706236663005053306,0.1552114486694336,9.754612922668459,-1.111774802207947,0.0033738217316567898,0.017334191128611565,-0.08351404964923859
1706236663015228047,0.1464027762413025,9.772491455078125,-1.0960754156112673,0.006600079592317343,0.01684579625725746,-0.09452489763498306
1706236663025485695,0.13983315229415894,9.771529197692873,-1.1341050863265993,0.008636615239083767,0.01709606871008873,-0.09808418154716492
1706236663035692825,0.1258082091808319,9.766785621643068,-1.1191351413726807,0.009484797716140747,0.01802494004368782,-0.09571593254804611
1706236663045855936,0.11862733215093614,9.768116950988771,-1.1147547960281374,0.008745068684220314,0.019519003108143806,-0.0906352624297142
1706236663055628362,0.1241038665175438,9.757320404052734,-1.1011860370635986,0.005885523743927479,0.021169252693653107,-0.08584214001893997
1706236663065550880,0.11698342859745026,9.779908180236818,-1.0787384510040283,0.0008955989615060389,0.022398030385375023,-0.08247437328100204
1706236663075635658,0.11021082848310472,9.769416809082031,-1.0584901571273806,-0.005468026734888554,0.022968223318457603,-0.07959064096212387
1706236663085638917,0.12389074265956879,9.763672828674318,-1.0453511476516726,-0.012077110819518566,0.02315816655755043,-0.07506055384874344
1706236663098394899,0.12122185528278351,9.75454330444336,-1.0349191427230837,-0.017794860526919365,0.02320077456533909,-0.066957026720047
1706236663105409510,0.11423295736312866,9.767341613769531,-1.025471329689026,-0.021680571138858795,0.02285913936793804,-0.05470162257552147
1706236663115711584,0.11917776614427568,9.75485610961914,-1.0238401889801025,-0.02339191548526287,0.02180553786456585,-0.039332978427410126
1706236663129454621,0.11534583568572998,9.75856685638428,-1.0295985937118532,-0.023358259350061417,0.020052440464496613,-0.023036113008856773
1706236663135822473,0.13579070568084717,9.76737689971924,-1.0410950183868408,-0.02232513763010502,0.017923813313245773,-0.008463148027658463
1706236663145882973,0.13540519773960116,9.77043342590332,-1.0655401945114138,-0.020688356831669807,0.016002444550395012,0.0018398810643702745
1706236663155874306,0.12042340636253357,9.769097328186037,-1.0676655769348145,-0.01838245801627636,0.015042769722640514,0.0059213293716311455
1706236663165057306,0.1270110756158829,9.752553939819336,-1.0756412744522097,-0.015515241771936417,0.015469135716557503,0.0030304749961942434
1706236663183948028,0.12277430295944214,9.763378143310547,-1.0873082876205447,-0.012760274112224579,0.016868334263563156,-0.005927200894802809
1706236663186500325,0.12736919522285461,9.765739440917969,-1.0921049118041992,-0.010901667177677155,0.01827540621161461,-0.01872723549604416
1706236663196112399,0.1320571005344391,9.768451690673828,-1.0927354097366335,-0.010237269103527069,0.019047528505325317,-0.032740268856287
1706236663205119788,0.13060316443443298,9.755295753479006,-1.0920189619064333,-0.010428971610963345,0.019203215837478638,-0.04564204439520836
1706236663216019677,0.1236972063779831,9.756311416625977,-1.0943093299865723,-0.01083409134298563,0.018934566527605057,-0.0557725615799427
1706236663226115899,0.13235342502593994,9.75699234008789,-1.0847178697586062,-0.011018934659659863,0.01819421909749508,-0.06231548637151718
1706236663235002065,0.13082252442836764,9.758368492126467,-1.0954351425170898,-0.010891842655837536,0.016889510676264763,-0.06528055667877197
1706236663252542195,0.129119873046875,9.76984977722168,-1.087480425834656,-0.010481791570782661,0.015256425365805626,-0.06536441296339035
1706236663265139954,0.1335664987564087,9.756361961364748,-1.1004468202590945,-0.009422283619642258,0.013563723303377628,-0.06143711879849434
1706236663276472602,0.11603637039661407,9.762411117553711,-1.0960520505905154,-0.009331239387392998,0.014229444786906242,-0.0596371665596962
1706236663285477065,0.12611746788024902,9.758366584777834,-1.0977840423583984,-0.009787945076823235,0.015376060269773006,-0.05905931815505028
1706236663297267973,0.1406604498624802,9.76376724243164,-1.0928498506546023,-0.010739602148532867,0.01634378731250763,-0.05991269648075104
1706236663305720232,0.14057342708110812,9.758318901062013,-1.0774898529052734,-0.011642120778560638,0.01679009385406971,-0.06165052577853203
1706236663315981306,0.13576096296310425,9.755284309387209,-1.0597184896469118,-0.01157122291624546,0.01668054424226284,-0.06300873309373856
1706236663327726528,0.1347545832395554,9.753246307373047,-1.0461642742156982,-0.01000388152897358,0.01605260744690895,-0.06227419525384903
1706236663339095547,0.1250932514667511,9.764369010925295,-1.0390077829360964,-0.007364488206803799,0.014954972080886364,-0.05793304368853569
1706236663347658010,0.11678165942430498,9.759972572326662,-1.0266817808151247,-0.004842287395149469,0.013657580129802227,-0.049446213990449905
1706236663355911158,0.10419570654630662,9.75825595855713,-1.0138365030288699,-0.0038770968094468117,0.01265643909573555,-0.03749845549464226
1706236663367987751,0.11552804708480835,9.761281013488771,-0.9994609355926514,-0.005556504242122173,0.012305413372814655,-0.023508181795477867
1706236663375325343,0.09891078621149064,9.775088310241701,-0.9916480779647827,-0.010036610998213291,0.012671759352087975,-0.008908388204872608
1706236663385669602,0.10418301820755005,9.777824401855469,-0.9961541891098022,-0.01647098921239376,0.013852196745574474,0.005175802856683731
1706236663395916436,0.10862772166728973,9.772708892822266,-0.9929487705230713,-0.023502344265580177,0.016096800565719604,0.017775053158402443
1706236663405306714,0.10621272772550584,9.77877426147461,-0.9865118265151978,-0.029723748564720154,0.019426828250288963,0.027997491881251335
1706236663415637973,0.10989501327276231,9.768301010131836,-0.975717306137085,-0.03402021527290344,0.023337561637163162,0.03540339320898056
1706236663425807751,0.11115705221891405,9.760518074035646,-0.9732120037078857,-0.03589610755443573,0.026894966140389442,0.04039290174841881
1706236663436159769,0.11065296083688737,9.772319793701172,-0.9630277752876283,-0.035539690405130386,0.029062315821647644,0.04404847323894501
1706236663445262454,0.11366138607263566,9.760169029235842,-0.9703047275543213,-0.033619221299886703,0.029237613081932068,0.0475333034992218
1706236663455428676,0.11059469729661943,9.752422332763672,-0.9691022634506226,-0.030995965003967285,0.0275258868932724,0.05146683752536774
1706236663466150047,0.11825062334537506,9.761829376220703,-0.9552009105682373,-0.028435464948415756,0.024417908862233162,0.05573226511478424
1706236663476210547,0.11868693679571153,9.762184143066406,-0.9591655135154725,-0.026363149285316467,0.020574655383825302,0.05992009490728378
1706236663485649436,0.10795740038156511,9.759825706481935,-0.9668698310852051,-0.02483733370900154,0.016881350427865982,0.06374544650316238
1706236663495816195,0.10770489275455475,9.773672103881836,-0.9849006533622743,-0.023870978504419327,0.014241841621696949,0.06680426001548767
1706236663506042288,0.10817409306764604,9.754438400268555,-0.9862521886825562,-0.023673925548791885,0.013221152126789093,0.06823092699050903
1706236663516039288,0.11244258284568787,9.763227462768555,-0.9994750618934632,-0.02440483495593071,0.013763592578470707,0.0670035183429718
1706236663525274973,0.11146223545074463,9.758852958679201,-1.0140515565872195,-0.02582484669983387,0.015166610479354858,0.06255339086055756
1706236663535426269,0.10860258340835571,9.75714111328125,-1.0070650577545166,-0.027372846379876137,0.016511356458067894,0.05503705516457558
1706236663545474991,0.1130434349179268,9.760530471801758,-1.0100632905960085,-0.028540244325995445,0.01714804209768772,0.045399442315101624
1706236663555956195,0.10934998095035553,9.747347831726076,-1.0057728290557861,-0.0290982648730278,0.016833258792757988,0.03531230241060257
1706236663565110417,0.11699490994215013,9.757506370544435,-1.0201835632324219,-0.02905145287513733,0.015608048066496849,0.026609640568494797
1706236663583268065,0.11549714207649231,9.748699188232422,-1.0201295614242556,-0.028485139831900597,0.013681914657354355,0.020396258682012558
1706236663585231399,0.11308491230010986,9.749077796936037,-1.0272661447525027,-0.02749045565724373,0.011389628984034061,0.016596568748354912
1706236663595749084,0.11537215858697893,9.734922409057617,-1.0298268795013428,-0.02623920515179634,0.008998394943773746,0.014276677742600441
1706236663605152695,0.11828713119029999,9.754185676574709,-1.055899500846863,-0.024991188198328018,0.00654459185898304,0.01219950895756483
1706236663615711769,0.12725985050201416,9.742715835571289,-1.0641237497329714,-0.02387445792555809,0.004078355617821217,0.009048300795257092
1706236663636114084,0.13415586948394775,9.755908966064453,-1.0912126302719118,-0.0213758647441864,0.0006949788075871766,-0.004685013089329004
1706236663647972528,0.1257767379283905,9.742064476013185,-1.0973575115203857,-0.019621755927801132,0.0006975861615501344,-0.01565190777182579
1706236663655922843,0.11801135540008545,9.740392684936523,-1.0913550853729248,-0.017505686730146408,0.001745091169141233,-0.02839331328868866
1706236663667862102,0.12015459686517717,9.74778938293457,-1.0759069919586182,-0.015405156649649143,0.002964668208733201,-0.04136023670434952
1706236663675942658,0.11049372702836992,9.742699623107912,-1.0607074499130251,-0.014036300592124462,0.003470975672826171,-0.05228210240602493
1706236663687917324,0.12004437297582628,9.746767997741701,-1.0504119396209717,-0.014018909074366093,0.002989331027492881,-0.05866291746497154
1706236663696020676,0.11434324830770494,9.749468803405763,-1.0472456216812136,-0.015445318073034286,0.0018453248776495457,-0.0588165707886219
1706236663713084121,0.11958058178424835,9.739337921142578,-1.039805054664612,-0.017799755558371544,0.0006130406400188804,-0.05274185538291931
1706236663715946232,0.10477132350206377,9.74570083618164,-1.005665421485901,-0.020313790068030357,-0.000295171863399446,-0.0420033298432827
1706236663727923065,0.11038418114185333,9.74834728240967,-0.9761382937431337,-0.022501375526189804,-0.0007979437941685319,-0.028454098850488663
1706236663739104658,0.1012512743473053,9.751086235046388,-0.9958550333976747,-0.024374157190322876,-0.0009069647639989853,-0.013140516355633736
1706236663745310250,0.10462811589241028,9.744670867919922,-1.007174015045166,-0.026217974722385406,-0.0005564170423895121,0.0030940354336053133
1706236663755873750,0.1043539121747017,9.76661777496338,-1.0214323997497559,-0.02825307473540306,0.00030953585519455373,0.01828085072338581
1706236663765427528,0.12462165951728821,9.754446983337404,-1.005760669708252,-0.03033287636935711,0.001774211530573666,0.029546286910772324
1706236663775803954,0.09905631840229034,9.75508785247803,-0.9860498905181885,-0.03186453878879547,0.003924031276255846,0.0350215770304203
1706236663785090176,0.12338027358055115,9.746282577514648,-0.9688506722450257,-0.03226038068532944,0.006486578844487667,0.03548947349190712
1706236663795425565,0.12207956612110138,9.763169288635256,-0.9690663814544678,-0.03135335072875023,0.008767505176365376,0.03409900516271591
1706236663805883824,0.11620037257671356,9.759131431579592,-0.9931117296218872,-0.029258785769343376,0.010240537114441395,0.0342189185321331
1706236663815140491,0.14711888134479525,9.758883476257326,-1.0226591825485232,-0.02618091180920601,0.010995527729392052,0.037002284079790115
1706236663826195435,0.12556870281696322,9.761229515075685,-1.02327835559845,-0.022289110347628593,0.011474396102130413,0.04057548940181732
1706236663835713380,0.11816757917404175,9.758551597595217,-1.0516250133514404,-0.017826827242970467,0.012016922235488892,0.04151954874396324
1706236663853231102,0.12264458090066911,9.756580352783203,-1.0692983865737917,-0.013582054525613785,0.012697051279246807,0.0370648168027401
1706236663858388806,0.11343568563461304,9.777125358581545,-1.0542373657226562,-0.010760828852653503,0.013444442301988602,0.026328299194574356
1706236663866365010,0.1296166479587555,9.780520439147951,-1.0709503889083865,-0.010138125158846378,0.014439459890127182,0.010670742020010948
1706236663875344769,0.12764023244380954,9.757246017456055,-1.0687353610992432,-0.011463385075330734,0.016180336475372314,-0.006814699154347181
1706236663885783658,0.1454116702079773,9.785269737243654,-1.073930025100708,-0.013504606671631336,0.018835000693798065,-0.022764697670936584
1706236663896268991,0.15919062495231628,9.767383575439453,-1.0771369934082031,-0.014526537619531155,0.02195168286561966,-0.03490045294165611
1706236663905345528,0.16079439222812655,9.760674476623537,-1.0962353944778445,-0.012911072000861168,0.0248443353921175,-0.04259783402085304
1706236663915436306,0.15758188068866733,9.772496223449709,-1.0951343774795534,-0.007875240407884121,0.02679845131933689,-0.046845998615026474
1706236663925314713,0.14747366309165955,9.772473335266115,-1.0962035655975342,-8.895871724234894e-05,0.027348676696419716,-0.049534574151039124
1706236663935928658,0.1442436128854752,9.766416549682617,-1.099799633026123,0.008396935649216175,0.026694195345044136,-0.05230928212404251
1706236663946046287,0.15046130120754245,9.770835876464844,-1.1002436876297,0.015116234309971333,0.025488626211881638,-0.05587409809231758
1706236663956136769,0.15710540115833285,9.765769958496094,-1.1112732887268066,0.01851773075759411,0.024302737787365913,-0.06012105196714401
1706236663965284843,0.1521790623664856,9.753266334533693,-1.1141141653060915,0.018693357706069946,0.023341920226812363,-0.06467188149690628
1706236663975720232,0.1585923731327057,9.775245666503906,-1.1212890148162842,0.016967615112662315,0.022434718906879425,-0.06930210441350937
1706236663986067454,0.16236291825771335,9.787768363952638,-1.144569516181946,0.014957984909415245,0.0215297881513834,-0.07410205155611038
1706236663995263732,0.14814379811286926,9.763817787170412,-1.1549223661422732,0.013864142820239067,0.021190259605646133,-0.07958002388477325
1706236664006256121,0.15619497001171115,9.76075077056885,-1.1354836225509646,0.014043123461306095,0.021952316164970398,-0.08641576766967773
1706236664025600584,0.1698647141456604,9.756068229675295,-1.1369271278381348,0.016158327460289,0.024512793868780136,-0.1024472787976265
1706236664035829991,0.17278411984443665,9.763154029846193,-1.130878567695618,0.017268270254135132,0.02452242560684681,-0.10830692946910858
1706236664046148324,0.17731960117816928,9.764151573181154,-1.125552296638489,0.018846293911337852,0.023256869986653328,-0.11095374077558517
1706236664055179954,0.1785990744829178,9.753376007080078,-1.1451450586318972,0.021524950861930847,0.021076351404190063,-0.11043473333120346
1706236664065781917,0.19205449521541598,9.755131721496584,-1.15902316570282,0.025542939081788063,0.01853635162115097,-0.10798025131225586
1706236664075491139,0.18087492883205417,9.76254653930664,-1.1583399772644043,0.030665898695588112,0.016038119792938232,-0.10575851798057556
1706236664085576158,0.17215725779533386,9.750368118286133,-1.1380176544189453,0.03621490299701691,0.01386550534516573,-0.10577327758073807
1706236664096174769,0.15739721059799194,9.765553474426271,-1.1272907257080078,0.040947359055280685,0.012262853793799877,-0.1083565503358841
1706236664105394676,0.15544942021369934,9.755041122436523,-1.106892228126526,0.043273378163576126,0.011375261470675468,-0.11172033846378326
1706236664115930250,0.15504178404808044,9.76820468902588,-1.096618890762329,0.04203750193119049,0.011258315294981003,-0.11299591511487961
1706236664135460880,0.1421535313129425,9.756345748901367,-1.0723497867584229,0.02963234856724739,0.013089819811284542,-0.10125002264976501
1706236664145773861,0.13590393960475924,9.754982948303224,-1.074070692062378,0.020722266286611557,0.01438507903367281,-0.08823654800653458
1706236664155839732,0.1421997845172882,9.761046409606935,-1.0509908199310303,0.011940598487854004,0.015183599665760994,-0.07286205142736435
1706236664165168324,0.15189565718173983,9.749585151672365,-1.051014065742493,0.0047331866808235645,0.015148899517953396,-0.0574781596660614
1706236664175184454,0.1569434851408005,9.74887466430664,-1.0278016328811648,0.0003057351859752089,0.01427199225872755,-0.04368392378091812
1706236664185824472,0.1450372338294983,9.75694465637207,-1.0241171121597292,-0.0006874846294522285,0.012677808292210102,-0.03191782534122467
1706236664195406898,0.1339910626411438,9.755227088928224,-0.9918569326400757,0.0013287788024172187,0.01067825686186552,-0.02160407230257988
1706236664205965102,0.13029694557189941,9.747765541076662,-0.9781827330589296,0.004654244985431433,0.008806325495243073,-0.011483454145491123
1706236664215999843,0.13373626768589023,9.758875846862795,-0.9784334301948548,0.007070624269545078,0.00749287661164999,-0.00016432447591796517
1706236664227200528,0.1299872547388077,9.75819206237793,-0.9610714316368104,0.007084520999342203,0.006903038825839758,0.013025389052927494
1706236664235845324,0.12664817273616794,9.759203910827638,-0.966491997241974,0.004541944712400436,0.007106139790266752,0.02754867635667324
1706236664245859213,0.13072101771831515,9.763254165649414,-0.970291554927826,0.0003057107678614557,0.008115455508232117,0.04192320629954338
1706236664256305972,0.13912518322467807,9.754802703857422,-0.9869272708892822,-0.004319998901337385,0.009768182411789894,0.05419024080038071
1706236664267234824,0.13328368961811068,9.75147342681885,-1.0052646398544314,-0.007992886006832123,0.011627835221588612,0.06230004131793976
1706236664276145157,0.14588385820388794,9.76295280456543,-1.013861894607544,-0.009729567915201187,0.013065886683762074,0.06459316611289978
1706236664286647935,0.14397372305393222,9.75554943084717,-1.0249255895614626,-0.009183758869767189,0.013669990003108978,0.060415443032979965
1706236664299958824,0.15855069458484652,9.755891799926758,-1.0284935235977175,-0.006552690174430609,0.013511456549167633,0.05055087059736252
1706236664306340972,0.16591238975524902,9.76670551300049,-1.0421210527420046,-0.00224824040196836,0.012956064194440842,0.03703349456191063
1706236664315845417,0.1631913185119629,9.757269859313967,-1.0402079820632937,0.0033388198353350163,0.012460143305361271,0.02238260582089424
1706236664325139361,0.1661949008703232,9.760317802429201,-1.0582849979400635,0.009736762382090092,0.012406354770064354,0.008758210577070713
1706236664337732713,0.16568149626255038,9.752866744995117,-1.0598412752151491,0.01620423048734665,0.012830483727157116,-0.0026120382826775312
1706236664345063546,0.16013839840888977,9.7579345703125,-1.0542718172073366,0.021843425929546356,0.013379940763115883,-0.011501452885568142
1706236664355441602,0.16850140690803528,9.76269054412842,-1.0591679811477663,0.02590406872332096,0.013655013404786587,-0.018179116770625114
1706236664367078287,0.1664812117815018,9.752567291259766,-1.0683978796005251,0.02809472195804119,0.013553307391703129,-0.022965840995311737
1706236664375897361,0.1587139368057251,9.758646965026857,-1.0655659437179568,0.028680991381406784,0.013209314085543156,-0.02630702219903469
1706236664386879176,0.16425372660160067,9.748506546020508,-1.0684264898300173,0.028179973363876343,0.012708315625786781,-0.028818512335419655
1706236664396056787,0.17191067337989807,9.753889083862305,-1.0570874214172363,0.02710608020424843,0.011992240324616432,-0.030955461785197258
1706236664405133009,0.16057197749614718,9.751842498779297,-1.0434650182724001,0.02602243982255459,0.01098000817000866,-0.03262247145175934
1706236664415787343,0.14551591873168945,9.755211830139162,-1.0325069427490234,0.02530108205974102,0.009740783832967281,-0.0330478809773922
1706236664425459380,0.1537393033504486,9.754846572875977,-1.0181238651275635,0.024656031280755997,0.00854434072971344,-0.031101446598768234
1706236664435143861,0.14909704029560092,9.758530616760256,-1.007454037666321,0.02337375469505787,0.007738242391496897,-0.025898858904838562
1706236664445340491,0.14540567994117737,9.745710372924805,-1.0083423852920534,0.0210556760430336,0.007533258758485317,-0.017316462472081184
1706236664455069639,0.1262391954660416,9.757833480834961,-0.9776802062988281,0.017772972583770752,0.007810140959918499,-0.006116483826190233
1706236664475597231,0.1203421950340271,9.750002861022951,-0.9488771557807923,0.008215885609388351,0.008699998259544373,0.019932236522436142
1706236664485075083,0.11567552387714386,9.759407043457031,-0.9370060563087464,0.0016500303754583001,0.00914316438138485,0.033752165734767914
1706236664498736268,0.12289343029260637,9.753658294677734,-0.9303728938102723,-0.005597608629614115,0.009547412395477295,0.04800359159708023
1706236664505192639,0.11836695671081543,9.766154289245607,-0.9316306710243226,-0.012464682571589947,0.009919146075844765,0.06243251636624336
1706236664515681231,0.11639541387557983,9.756031990051271,-0.9394522905349731,-0.01786051131784916,0.010411377996206284,0.07617659121751785
1706236664525402787,0.11299169808626176,9.759387016296388,-0.9419573545455933,-0.02123790793120861,0.011177840642631054,0.08778174966573715
1706236664535903861,0.11289530992507935,9.757713317871094,-0.9441725015640259,-0.02281496301293373,0.01214834675192833,0.095746248960495
1706236664555041398,0.10637282580137254,9.75364875793457,-0.9580073952674867,-0.023753181099891663,0.013481391593813896,0.09842442721128464
1706236664566222768,0.10646650195121765,9.76511859893799,-0.9607152342796327,-0.024752561002969742,0.013297968544065952,0.0942029356956482
1706236664585492379,0.12813079357147217,9.7604455947876,-0.9935691952705384,-0.028012221679091454,0.012178606353700161,0.080124631524086
1706236664595695509,0.12624387443065646,9.777692794799805,-1.0167768001556396,-0.028194395825266838,0.012278597801923752,0.07143706828355789
1706236664605777120,0.12864044308662415,9.764541625976562,-1.0255658626556396,-0.026173973456025124,0.013321086764335632,0.06140013784170151
1706236664615683713,0.13366162776947021,9.769245147705078,-1.018323063850403,-0.022190531715750694,0.015400744043290615,0.049739520996809006
1706236664625359305,0.13883015513420105,9.772651672363281,-1.032801628112793,-0.01716879941523075,0.0181809701025486,0.03693334013223648
1706236664635469176,0.13929811120033264,9.763174057006836,-1.0183515548706055,-0.012037879787385464,0.021022776141762733,0.02433212660253048
1706236664645842787,0.13153958320617676,9.773287773132326,-0.9937785863876343,-0.007448058109730482,0.02331288531422615,0.013765071518719196
